Timestamp;Accel_x;Accel_y;Accel_z;Gyro_x;Gyro_y;Gyro_z;Latitude;Longitude;Speed
20190405_174228;-0.019;-0.271;10.281;0.012;-0.049;0.004;49.04130;13.23040;0.1
20190405_174228;-0.081;-0.268;9.694;-0.011;-0.010;-0.001;49.04130;13.23040;0.1
20190405_174228;-0.213;-0.077;10.219;-0.002;-0.001;0.004;49.04130;13.23040;0.1
20190405_174228;-0.491;-0.069;9.900;-0.004;-0.009;-0.002;49.04130;13.23040;0.1
20190405_174229;-0.201;-0.151;9.469;0.004;0.001;0.003;49.04130;13.23040;0.1
20190405_174229;-0.024;-0.268;9.259;-0.011;0.002;0.001;49.04130;13.23040;0.1
20190405_174229;-0.120;-0.366;10.298;-0.004;0.003;0.003;49.04130;13.23040;0.1
20190405_174229;-0.335;-0.271;10.216;-0.007;0.008;-0.000;49.04130;13.23040;0.1
20190405_174229;-0.524;-0.366;10.595;0.003;0.003;0.002;49.04130;13.23040;0.1
20190405_174229;-0.335;-0.177;9.749;-0.000;0.000;0.002;49.04130;13.23040;0.1
20190405_174229;0.002;-0.438;9.014;-0.008;0.012;-0.001;49.04130;13.23040;0.1
20190405_174229;-0.242;-0.642;10.113;0.005;0.002;-0.002;49.04130;13.23040;0.1
20190405_174229;-0.283;-0.555;9.532;-0.010;-0.002;-0.007;49.04130;13.23040;0.1
20190405_174230;0.005;-0.424;9.084;0.006;0.037;-0.005;49.04130;13.23040;0.0
20190405_174230;0.022;-0.486;9.196;0.008;-0.003;-0.006;49.04130;13.23040;0.0
20190405_174230;-0.227;-0.594;10.161;-0.020;-0.008;-0.008;49.04130;13.23040;0.0
20190405_174230;-0.251;-0.376;9.489;-0.009;0.017;-0.015;49.04130;13.23040;0.0
20190405_174230;0.010;-0.599;9.510;-0.005;0.026;-0.017;49.04130;13.23040;0.0
20190405_174230;-0.108;-0.481;9.412;-0.016;0.018;-0.017;49.04130;13.23040;0.0
20190405_174230;-0.618;-0.510;10.401;0.007;0.034;-0.014;49.04130;13.23040;0.0
20190405_174230;-0.206;-0.089;9.558;0.003;0.030;-0.018;49.04130;13.23040;0.0
20190405_174230;0.024;-0.034;9.168;0.012;-0.020;-0.012;49.04130;13.23040;0.0
20190405_174231;-0.010;-0.105;9.263;0.002;-0.003;-0.010;49.04130;13.23040;0.6
20190405_174231;-0.244;-0.182;10.315;-0.004;-0.031;-0.017;49.04130;13.23040;0.6
20190405_174231;-0.275;-0.069;9.438;0.007;0.023;-0.011;49.04130;13.23040;0.6
20190405_174231;-0.199;-0.261;9.213;-0.005;0.012;-0.012;49.04130;13.23040;0.6
20190405_174231;-0.376;-0.565;10.458;-0.006;0.017;-0.013;49.04130;13.23040;0.6
20190405_174231;-0.476;-0.455;10.592;-0.014;0.030;-0.016;49.04130;13.23040;0.6
20190405_174231;-0.151;-0.268;9.455;-0.015;-0.020;-0.017;49.04130;13.23040;0.6
20190405_174231;-0.393;-0.381;9.752;0.006;-0.026;-0.012;49.04130;13.23040;0.6
20190405_174231;-0.144;-0.479;9.340;-0.024;0.007;-0.018;49.04130;13.23040;0.6
20190405_174232;-0.397;-0.692;10.319;0.001;0.020;-0.020;49.04130;13.23040;0.6
20190405_174232;-0.318;-0.462;9.704;-0.010;-0.013;-0.018;49.04130;13.23040;0.6
20190405_174232;-0.522;-0.527;9.795;0.007;0.011;-0.016;49.04130;13.23040;0.6
20190405_174232;-0.050;-0.603;9.038;0.012;0.024;-0.021;49.04130;13.23040;0.6
20190405_174232;-0.278;-0.441;9.105;-0.004;0.015;-0.023;49.04130;13.23040;0.6
20190405_174232;-0.551;-0.443;10.101;0.015;-0.050;-0.025;49.04130;13.23040;0.6
20190405_174232;-0.017;-0.481;9.184;-0.003;0.012;-0.026;49.04130;13.23040;0.6
20190405_174232;0.110;-0.481;9.733;0.003;0.020;-0.025;49.04130;13.23040;0.6
20190405_174232;-0.005;-0.546;9.292;0.007;0.015;-0.030;49.04130;13.23040;0.6
20190405_174233;0.072;-0.493;9.172;0.000;0.006;-0.017;49.04130;13.23041;0.8
20190405_174233;-0.211;-0.362;9.196;0.017;-0.054;-0.026;49.04130;13.23041;0.8
20190405_174233;0.192;-0.280;10.291;0.007;-0.023;-0.036;49.04130;13.23041;0.8
20190405_174233;-0.122;0.117;9.568;0.015;0.007;-0.018;49.04130;13.23041;0.8
20190405_174233;-0.211;0.271;9.917;0.005;-0.029;-0.020;49.04130;13.23041;0.8
20190405_174233;-0.125;0.371;9.022;0.009;0.032;-0.023;49.04130;13.23041;0.8
20190405_174233;-0.311;0.204;10.159;0.019;-0.009;-0.007;49.04130;13.23041;0.8
20190405_174233;0.010;0.424;9.611;0.006;-0.023;-0.009;49.04130;13.23041;0.8
20190405_174233;-0.086;0.230;9.156;0.006;0.046;-0.010;49.04130;13.23041;0.8
20190405_174234;-0.165;0.129;9.821;-0.002;0.005;0.002;49.04129;13.23041;0.1
20190405_174234;-0.041;-0.426;9.738;-0.011;-0.015;-0.008;49.04129;13.23041;0.1
20190405_174234;-0.345;-0.469;10.298;-0.008;0.007;-0.003;49.04129;13.23041;0.1
20190405_174234;-0.201;-0.534;9.864;0.001;-0.005;-0.001;49.04129;13.23041;0.1
20190405_174234;-0.103;-0.548;10.331;-0.007;0.015;0.016;49.04129;13.23041;0.1
20190405_174234;-0.201;-0.450;9.943;-0.000;-0.040;-0.007;49.04129;13.23041;0.1
20190405_174234;-0.146;-0.338;9.711;0.008;-0.003;-0.010;49.04129;13.23041;0.1
20190405_174234;-0.146;-0.541;9.450;-0.009;-0.007;-0.007;49.04129;13.23041;0.1
20190405_174235;0.045;-0.627;9.316;0.009;0.013;-0.008;49.04129;13.23041;0.1
20190405_174235;-0.160;-0.634;10.202;-0.001;-0.009;-0.011;49.04129;13.23041;0.1
20190405_174235;-0.036;-0.754;9.517;0.012;-0.005;-0.014;49.04129;13.23041;0.1
20190405_174235;-0.225;-0.718;9.917;0.001;-0.027;-0.014;49.04129;13.23041;0.1
20190405_174235;-0.031;-0.828;9.757;0.012;0.004;-0.014;49.04129;13.23041;0.1
20190405_174235;0.045;-0.713;9.857;0.006;-0.027;-0.014;49.04129;13.23041;0.1
20190405_174235;-0.050;-0.567;10.070;0.012;-0.010;-0.015;49.04129;13.23041;0.1
20190405_174235;-0.069;-0.570;9.568;0.011;-0.024;-0.018;49.04129;13.23041;0.1
20190405_174235;0.017;-0.541;9.855;0.016;-0.005;-0.015;49.04129;13.23041;0.6
20190405_174236;0.012;-0.441;9.591;-0.000;0.003;-0.010;49.04129;13.23041;0.6
20190405_174236;-0.089;-0.443;9.697;0.009;-0.025;-0.013;49.04129;13.23041;0.6
20190405_174236;0.022;-0.412;9.579;0.006;0.006;-0.013;49.04129;13.23041;0.6
20190405_174236;-0.139;-0.400;9.821;0.000;-0.005;-0.011;49.04129;13.23041;0.6
20190405_174236;0.156;-0.402;9.723;0.015;-0.017;-0.010;49.04129;13.23041;0.6
20190405_174236;0.045;-0.125;9.809;0.007;-0.009;-0.007;49.04129;13.23041;0.6
20190405_174236;0.287;-0.057;9.766;0.009;-0.001;-0.006;49.04129;13.23041;0.6
20190405_174236;0.211;-0.211;9.259;-0.002;-0.034;-0.007;49.04129;13.23041;0.6
20190405_174237;0.247;-0.189;9.714;0.004;-0.002;0.002;49.04129;13.23041;1.3
20190405_174237;0.050;-0.211;10.001;0.006;-0.012;-0.004;49.04129;13.23041;1.3
20190405_174237;-0.153;-0.019;10.058;0.007;-0.035;-0.007;49.04129;13.23041;1.3
20190405_174237;0.043;0.081;9.845;0.017;0.013;-0.003;49.04129;13.23041;1.3
20190405_174237;-0.220;-0.163;9.941;0.007;-0.028;-0.003;49.04129;13.23041;1.3
20190405_174237;-0.081;-0.050;10.341;0.015;-0.008;-0.004;49.04129;13.23041;1.3
20190405_174237;0.026;-0.117;10.307;0.008;-0.007;-0.003;49.04129;13.23041;1.3
20190405_174237;0.402;0.005;9.692;0.014;0.002;-0.002;49.04129;13.23041;1.3
20190405_174237;0.285;-0.022;9.539;0.004;-0.015;0.001;49.04129;13.23041;1.3
20190405_174238;-0.268;-0.225;9.958;0.008;-0.036;-0.007;49.04128;13.23041;1.7
20190405_174238;0.431;-0.074;10.089;0.022;0.013;0.002;49.04128;13.23041;1.7
20190405_174238;0.350;0.048;9.508;0.002;-0.027;0.001;49.04128;13.23041;1.7
20190405_174238;0.713;0.144;9.599;0.017;0.021;-0.000;49.04128;13.23041;1.7
20190405_174238;-0.043;0.251;10.128;0.018;-0.034;-0.002;49.04128;13.23041;1.7
20190405_174238;0.333;0.156;10.099;0.010;-0.016;-0.004;49.04128;13.23041;1.7
20190405_174238;0.424;0.125;10.149;0.012;-0.024;0.003;49.04128;13.23041;1.7
20190405_174238;0.359;0.129;9.807;0.012;-0.032;-0.004;49.04128;13.23041;1.7
20190405_174238;0.371;0.057;9.809;0.012;-0.007;-0.003;49.04128;13.23041;1.7
20190405_174239;0.431;0.012;10.049;0.018;-0.016;-0.002;49.04127;13.23039;1.9
20190405_174239;0.153;-0.067;9.594;0.027;0.019;-0.003;49.04127;13.23039;1.9
20190405_174239;0.175;-0.132;9.448;0.019;-0.003;-0.006;49.04127;13.23039;1.9
20190405_174239;0.582;-0.125;9.599;0.020;-0.019;0.006;49.04127;13.23039;1.9
20190405_174239;0.108;-0.170;9.709;0.025;0.001;-0.006;49.04127;13.23039;1.9
20190405_174239;0.153;-0.338;9.606;0.017;-0.021;-0.010;49.04127;13.23039;1.9
20190405_174239;0.048;-0.134;9.757;0.017;-0.015;0.006;49.04127;13.23039;1.9
20190405_174239;0.113;-0.139;9.761;0.013;-0.022;-0.009;49.04127;13.23039;1.9
20190405_174239;-0.098;-0.117;9.781;0.011;-0.029;-0.006;49.04127;13.23039;1.9
20190405_174240;0.141;-0.096;9.972;0.020;-0.037;-0.003;49.04126;13.23038;2.3
20190405_174240;0.529;0.000;9.706;0.026;-0.004;-0.005;49.04126;13.23038;2.3
20190405_174240;0.127;-0.012;9.785;0.014;-0.022;-0.006;49.04126;13.23038;2.3
20190405_174240;0.508;0.472;9.771;0.016;0.001;0.007;49.04126;13.23038;2.3
20190405_174240;0.405;0.646;9.855;0.008;-0.015;-0.010;49.04126;13.23038;2.3
20190405_174240;0.453;0.845;9.632;-0.001;-0.009;0.001;49.04126;13.23038;2.3
20190405_174240;0.326;0.833;9.735;-0.014;-0.029;0.003;49.04126;13.23038;2.3
20190405_174240;0.285;0.706;9.872;0.003;-0.029;-0.003;49.04126;13.23038;2.3
20190405_174240;0.788;0.670;9.759;-0.001;-0.038;-0.004;49.04126;13.23038;2.3
20190405_174241;0.048;0.740;9.800;0.004;-0.026;-0.004;49.04125;13.23037;2.4
20190405_174241;0.378;0.740;9.613;0.008;0.019;-0.000;49.04125;13.23037;2.4
20190405_174241;0.273;0.742;9.656;0.013;0.012;-0.000;49.04125;13.23037;2.4
20190405_174241;0.522;0.723;9.510;0.005;0.008;-0.004;49.04125;13.23037;2.4
20190405_174241;0.663;0.905;9.766;0.004;0.028;0.005;49.04125;13.23037;2.4
20190405_174241;0.354;0.819;9.915;0.008;0.002;-0.000;49.04125;13.23037;2.4
20190405_174241;0.498;1.022;9.934;-0.002;0.023;0.002;49.04125;13.23037;2.4
20190405_174241;0.278;0.850;9.850;0.004;-0.010;0.004;49.04125;13.23037;2.4
20190405_174242;0.594;0.860;9.752;0.001;-0.015;-0.003;49.04125;13.23036;1.9
20190405_174242;0.510;0.639;9.814;-0.004;0.010;-0.001;49.04125;13.23036;1.9
20190405_174242;0.230;0.120;9.886;-0.004;0.001;0.002;49.04125;13.23036;1.9
20190405_174242;0.328;-0.120;9.663;-0.008;-0.029;-0.000;49.04125;13.23036;1.9
20190405_174242;0.596;-0.192;9.706;-0.000;0.009;0.004;49.04125;13.23036;1.9
20190405_174242;0.419;-0.342;9.544;0.000;0.004;0.005;49.04125;13.23036;1.9
20190405_174242;0.254;-0.359;9.965;-0.001;-0.022;-0.002;49.04125;13.23036;1.9
20190405_174242;0.682;-0.369;9.855;0.003;-0.082;0.004;49.04125;13.23036;1.9
20190405_174242;0.536;-0.395;9.448;0.001;0.017;-0.000;49.04125;13.23036;1.9
20190405_174243;0.608;-0.409;9.802;0.007;0.045;-0.000;49.04125;13.23035;1.5
20190405_174243;0.429;-0.359;9.908;0.013;0.014;0.006;49.04125;13.23035;1.5
20190405_174243;0.187;-0.651;9.419;0.001;0.044;0.002;49.04125;13.23035;1.5
20190405_174243;0.038;-0.558;9.053;0.002;0.065;-0.009;49.04125;13.23035;1.5
20190405_174243;-0.268;-0.488;9.797;0.021;0.058;-0.001;49.04125;13.23035;1.5
20190405_174243;0.177;-0.493;10.039;0.018;-0.104;0.002;49.04125;13.23035;1.5
20190405_174243;0.242;-0.306;10.113;0.023;-0.004;-0.004;49.04125;13.23035;1.5
20190405_174243;0.761;-0.045;9.402;0.020;-0.071;0.001;49.04125;13.23035;1.5
20190405_174243;0.496;0.031;9.809;-0.006;0.012;-0.004;49.04125;13.23035;1.5
20190405_174244;0.208;0.419;9.546;-0.013;0.015;-0.005;49.04123;13.23033;2.8
20190405_174244;0.409;0.596;10.123;-0.002;0.032;0.001;49.04123;13.23033;2.8
20190405_174244;-0.376;0.850;9.630;-0.004;0.003;-0.001;49.04123;13.23033;2.8
20190405_174244;-0.086;0.778;9.754;-0.010;-0.049;-0.006;49.04123;13.23033;2.8
20190405_174244;0.409;0.785;9.929;-0.022;-0.031;-0.003;49.04123;13.23033;2.8
20190405_174244;0.639;0.599;9.747;-0.025;-0.062;-0.009;49.04123;13.23033;2.8
20190405_174244;0.603;0.919;10.128;0.020;-0.017;-0.013;49.04123;13.23033;2.8
20190405_174244;0.517;0.881;9.898;0.035;0.062;-0.007;49.04123;13.23033;2.8
20190405_174244;0.673;0.761;9.998;0.015;-0.002;-0.022;49.04123;13.23033;2.8
20190405_174245;0.599;0.608;9.747;0.003;0.038;-0.032;49.04122;13.23032;3.6
20190405_174245;0.285;0.414;9.852;-0.002;0.009;-0.027;49.04122;13.23032;3.6
20190405_174245;0.266;0.462;9.967;-0.016;-0.013;-0.045;49.04122;13.23032;3.6
20190405_174245;0.237;0.074;9.912;-0.025;0.001;-0.054;49.04122;13.23032;3.6
20190405_174245;0.263;0.259;9.692;-0.010;0.065;-0.057;49.04122;13.23032;3.6
20190405_174245;-0.024;0.232;9.524;-0.015;0.051;-0.064;49.04122;13.23032;3.6
20190405_174245;-0.491;0.045;9.735;-0.023;0.024;-0.082;49.04122;13.23032;3.6
20190405_174245;0.184;0.113;9.979;-0.028;-0.034;-0.087;49.04122;13.23032;3.6
20190405_174245;0.591;-0.146;9.505;-0.024;0.047;-0.092;49.04122;13.23032;3.6
20190405_174246;0.139;-0.074;9.757;-0.037;-0.021;-0.104;49.04121;13.23030;4.0
20190405_174246;-0.498;0.045;9.943;-0.032;0.112;-0.111;49.04121;13.23030;4.0
20190405_174246;-0.546;0.050;9.565;-0.001;0.142;-0.123;49.04121;13.23030;4.0
20190405_174246;-0.163;-0.038;9.505;-0.015;0.134;-0.131;49.04121;13.23030;4.0
20190405_174246;-0.776;0.146;10.128;-0.019;0.088;-0.145;49.04121;13.23030;4.0
20190405_174246;-0.565;0.359;10.149;-0.027;0.056;-0.157;49.04121;13.23030;4.0
20190405_174246;-0.345;0.450;9.757;-0.005;-0.094;-0.172;49.04121;13.23030;4.0
20190405_174246;-0.201;0.287;9.539;-0.027;-0.024;-0.185;49.04121;13.23030;4.0
20190405_174246;-0.620;0.024;9.663;-0.047;0.071;-0.191;49.04121;13.23030;4.0
20190405_174247;-1.338;-0.172;9.757;-0.036;-0.049;-0.207;49.04119;13.23028;4.3
20190405_174247;-0.668;-0.098;9.790;-0.040;-0.106;-0.207;49.04119;13.23028;4.3
20190405_174247;-0.567;0.110;9.939;-0.034;-0.008;-0.219;49.04119;13.23028;4.3
20190405_174247;-0.649;0.196;9.759;-0.043;0.033;-0.233;49.04119;13.23028;4.3
20190405_174247;-0.814;-0.223;9.929;-0.032;0.089;-0.240;49.04119;13.23028;4.3
20190405_174247;-0.891;-0.043;9.319;-0.029;-0.004;-0.257;49.04119;13.23028;4.3
20190405_174247;-0.922;-0.010;9.196;-0.035;0.048;-0.254;49.04119;13.23028;4.3
20190405_174247;-0.481;-0.177;9.548;-0.048;-0.129;-0.252;49.04119;13.23028;4.3
20190405_174247;-0.323;-0.237;9.757;-0.054;0.026;-0.273;49.04118;13.23027;4.5
20190405_174248;-0.814;-0.745;9.709;-0.062;0.002;-0.274;49.04118;13.23027;4.5
20190405_174248;-1.123;-0.484;10.465;-0.054;0.142;-0.283;49.04118;13.23027;4.5
20190405_174248;-1.068;-0.718;9.730;-0.038;-0.059;-0.300;49.04118;13.23027;4.5
20190405_174248;-0.946;-0.582;9.515;-0.031;-0.004;-0.295;49.04118;13.23027;4.5
20190405_174248;-1.228;-0.364;10.056;-0.017;0.025;-0.275;49.04118;13.23027;4.5
20190405_174248;-1.255;-0.330;10.233;-0.007;0.052;-0.291;49.04118;13.23027;4.5
20190405_174248;-0.536;-0.690;9.917;-0.011;0.054;-0.283;49.04118;13.23027;4.5
20190405_174248;-1.484;-0.649;9.512;-0.002;0.116;-0.264;49.04118;13.23027;4.5
20190405_174249;-0.187;-0.455;10.480;-0.002;-0.090;-0.247;49.04117;13.23025;4.7
20190405_174249;-1.001;-0.536;9.606;0.001;0.100;-0.257;49.04117;13.23025;4.7
20190405_174249;0.050;-0.601;9.852;-0.008;-0.037;-0.235;49.04117;13.23025;4.7
20190405_174249;-0.718;-0.548;9.639;-0.011;0.089;-0.218;49.04117;13.23025;4.7
20190405_174249;-1.001;-0.515;9.778;0.007;-0.023;-0.207;49.04117;13.23025;4.7
20190405_174249;-0.769;-0.553;9.647;-0.000;-0.048;-0.201;49.04117;13.23025;4.7
20190405_174249;-0.589;-0.639;9.649;-0.001;0.023;-0.189;49.04117;13.23025;4.7
20190405_174249;-0.934;-0.855;9.795;-0.004;0.008;-0.186;49.04117;13.23025;4.7
20190405_174249;-0.663;-0.747;9.898;-0.004;-0.027;-0.179;49.04117;13.23025;4.7
20190405_174250;-0.555;-0.740;9.738;0.001;-0.009;-0.171;49.04116;13.23023;4.4
20190405_174250;-0.441;-0.491;9.563;-0.001;0.031;-0.163;49.04116;13.23023;4.4
20190405_174250;-0.606;-0.687;9.982;0.007;0.030;-0.158;49.04116;13.23023;4.4
20190405_174250;-0.484;-0.778;10.195;0.002;-0.013;-0.150;49.04116;13.23023;4.4
20190405_174250;-0.634;-0.716;9.666;0.002;-0.005;-0.137;49.04116;13.23023;4.4
20190405_174250;-0.781;-0.725;9.896;-0.005;0.000;-0.121;49.04116;13.23023;4.4
20190405_174250;-0.570;-0.687;9.457;-0.002;-0.015;-0.105;49.04116;13.23023;4.4
20190405_174250;-0.484;-0.623;9.814;-0.001;0.028;-0.093;49.04116;13.23023;4.4
20190405_174250;-0.560;-0.687;9.836;0.003;0.004;-0.082;49.04116;13.23021;4.1
20190405_174251;-0.536;-0.754;9.647;-0.005;0.020;-0.077;49.04116;13.23021;4.1
20190405_174251;-0.544;-0.716;9.678;-0.002;-0.009;-0.068;49.04116;13.23021;4.1
20190405_174251;-0.419;-0.778;9.620;-0.001;0.014;-0.057;49.04116;13.23021;4.1
20190405_174251;-0.347;-0.759;10.051;0.001;-0.006;-0.063;49.04116;13.23021;4.1
20190405_174251;-0.520;-0.824;9.747;0.000;-0.009;-0.053;49.04116;13.23021;4.1
20190405_174251;-0.498;-0.654;9.759;0.001;0.006;-0.046;49.04116;13.23021;4.1
20190405_174251;-0.582;-0.812;9.611;0.003;-0.004;-0.050;49.04116;13.23021;4.1
20190405_174251;-0.278;-0.682;9.754;0.001;0.011;-0.042;49.04116;13.23021;4.1
20190405_174252;-0.426;-0.761;9.764;0.000;-0.001;-0.037;49.04116;13.23020;2.7
20190405_174252;-0.371;-0.721;9.963;0.003;-0.019;-0.037;49.04116;13.23020;2.7
20190405_174252;-0.424;-0.615;9.584;0.002;0.002;-0.029;49.04116;13.23020;2.7
20190405_174252;-0.615;-0.670;9.668;0.002;-0.005;-0.031;49.04116;13.23020;2.7
20190405_174252;-0.326;-0.690;9.824;-0.004;0.018;-0.024;49.04116;13.23020;2.7
20190405_174252;-0.170;-0.615;9.757;-0.003;-0.001;-0.021;49.04116;13.23020;2.7
20190405_174252;-0.204;-0.702;9.754;-0.002;0.024;-0.014;49.04116;13.23020;2.7
20190405_174252;-0.029;-0.651;9.757;0.002;0.020;-0.010;49.04116;13.23020;2.7
20190405_174252;-0.393;-0.740;9.611;-0.002;0.037;-0.006;49.04116;13.23020;2.7
20190405_174253;-0.603;-0.637;9.431;0.008;0.009;-0.004;49.04116;13.23019;1.6
20190405_174253;-0.575;-0.771;9.477;0.007;-0.016;-0.005;49.04116;13.23019;1.6
20190405_174253;-0.587;-0.761;9.709;-0.008;-0.056;-0.000;49.04116;13.23019;1.6
20190405_174253;-0.261;-0.955;9.745;-0.007;-0.026;0.004;49.04116;13.23019;1.6
20190405_174253;-0.232;-0.929;9.805;0.006;-0.035;0.001;49.04116;13.23019;1.6
20190405_174253;-0.524;-0.939;9.761;-0.009;-0.031;-0.000;49.04116;13.23019;1.6
20190405_174253;-0.637;-0.790;9.560;-0.004;-0.040;0.001;49.04116;13.23019;1.6
20190405_174253;-0.649;-0.730;9.474;-0.002;0.004;-0.002;49.04116;13.23019;1.6
20190405_174254;-0.534;-0.697;9.445;0.001;0.008;-0.002;49.04116;13.23018;1.0
20190405_174254;0.060;-0.711;9.761;0.004;-0.020;0.002;49.04116;13.23018;1.0
20190405_174254;-0.426;-0.800;9.570;0.005;-0.012;-0.001;49.04116;13.23018;1.0
20190405_174254;-0.182;-0.745;9.716;-0.004;0.021;-0.002;49.04116;13.23018;1.0
20190405_174254;-0.342;-0.893;9.924;0.001;0.001;0.001;49.04116;13.23018;1.0
20190405_174254;-0.271;-0.860;9.457;-0.002;0.006;0.003;49.04116;13.23018;1.0
20190405_174254;-0.199;-0.850;9.831;-0.000;0.002;0.001;49.04116;13.23018;1.0
20190405_174254;-0.139;-0.883;9.603;0.001;0.016;0.001;49.04116;13.23018;1.0
20190405_174254;-0.448;-0.816;9.673;-0.003;-0.019;-0.001;49.04116;13.23018;1.0
20190405_174255;-0.462;-0.874;9.757;-0.004;-0.019;-0.000;49.04116;13.23018;0.2
20190405_174255;-0.220;-0.895;9.805;-0.002;0.017;0.001;49.04116;13.23018;0.2
20190405_174255;-0.426;-0.931;9.785;0.000;0.023;0.002;49.04116;13.23018;0.2
20190405_174255;-0.158;-0.620;9.565;0.007;-0.028;0.002;49.04116;13.23018;0.2
20190405_174255;-0.335;-1.032;9.757;-0.004;0.007;0.003;49.04116;13.23018;0.2
20190405_174255;-0.366;-0.970;9.663;-0.000;-0.007;0.002;49.04116;13.23018;0.2
20190405_174255;-0.151;-0.874;9.639;-0.003;0.001;0.002;49.04116;13.23018;0.2
20190405_174255;-0.294;-0.797;9.757;-0.001;-0.012;-0.001;49.04116;13.23018;0.2
20190405_174255;-0.496;0.048;9.704;0.006;-0.014;0.004;49.04116;13.23018;0.2
20190405_174256;-0.558;0.055;9.898;0.015;-0.007;-0.000;49.04116;13.23018;0.7
20190405_174256;0.053;-0.450;9.805;-0.007;-0.094;0.001;49.04116;13.23018;0.7
20190405_174256;-0.101;-0.369;9.711;-0.002;-0.023;0.004;49.04116;13.23018;0.7
20190405_174256;-0.474;-0.335;10.089;0.005;0.043;0.005;49.04116;13.23018;0.7
20190405_174256;-0.840;-0.127;9.654;0.013;0.118;-0.004;49.04116;13.23018;0.7
20190405_174256;-0.809;-0.297;9.749;0.009;0.054;-0.003;49.04116;13.23018;0.7
20190405_174256;-0.163;-0.563;9.828;0.002;-0.030;0.008;49.04116;13.23018;0.7
20190405_174256;0.014;-0.457;10.212;0.002;0.023;0.005;49.04116;13.23018;0.7
20190405_174256;0.429;-0.294;10.142;-0.008;0.111;-0.003;49.04116;13.23018;1.4
20190405_174257;-1.022;-0.393;9.172;0.003;-0.012;-0.010;49.04116;13.23018;1.4
20190405_174257;-0.074;-0.663;9.563;0.006;-0.083;-0.006;49.04116;13.23018;1.4
20190405_174257;0.122;-0.414;9.809;0.003;0.109;-0.012;49.04116;13.23018;1.4
20190405_174257;-1.140;-0.591;9.146;0.013;0.035;-0.018;49.04116;13.23018;1.4
20190405_174257;-0.888;-1.111;9.802;-0.012;-0.096;-0.021;49.04116;13.23018;1.4
20190405_174257;0.474;-0.898;9.955;-0.003;-0.043;-0.015;49.04116;13.23018;1.4
20190405_174257;0.409;-0.929;9.970;-0.006;0.076;-0.015;49.04116;13.23018;1.4
20190405_174257;-0.376;-1.324;9.850;0.001;0.068;-0.023;49.04116;13.23018;1.4
20190405_174258;-0.184;-1.496;9.608;-0.008;-0.074;-0.020;49.04116;13.23019;2.2
20190405_174258;-0.187;-1.310;9.948;-0.005;0.060;-0.011;49.04116;13.23019;2.2
20190405_174258;-0.962;-1.214;9.364;0.000;0.062;-0.023;49.04116;13.23019;2.2
20190405_174258;-0.500;-1.061;9.237;-0.004;-0.048;-0.021;49.04116;13.23019;2.2
20190405_174258;0.062;-0.931;9.632;0.006;0.016;-0.009;49.04116;13.23019;2.2
20190405_174258;-0.668;-1.010;10.185;0.001;0.059;-0.023;49.04116;13.23019;2.2
20190405_174258;-0.371;-0.924;9.850;-0.019;-0.122;-0.017;49.04116;13.23019;2.2
20190405_174258;0.354;-0.814;9.915;0.001;0.004;-0.014;49.04116;13.23019;2.2
20190405_174258;-0.591;-0.886;9.627;0.012;-0.010;-0.023;49.04116;13.23019;2.2
20190405_174259;-1.063;-1.049;9.749;0.012;-0.019;-0.024;49.04116;13.23020;2.8
20190405_174259;-1.149;-1.132;9.383;-0.000;-0.002;-0.025;49.04116;13.23020;2.8
20190405_174259;0.666;-1.207;9.852;0.007;0.062;-0.015;49.04116;13.23020;2.8
20190405_174259;-0.690;-1.276;9.462;0.001;0.059;-0.021;49.04116;13.23020;2.8
20190405_174259;-0.769;-1.425;9.489;-0.011;-0.095;-0.017;49.04116;13.23020;2.8
20190405_174259;0.488;-1.475;9.764;0.003;-0.004;-0.013;49.04116;13.23020;2.8
20190405_174259;-1.087;-1.449;9.101;0.003;0.031;-0.023;49.04116;13.23020;2.8
20190405_174259;-0.618;-1.573;9.522;-0.006;-0.098;-0.011;49.04116;13.23020;2.8
20190405_174259;0.627;-1.437;10.010;0.008;0.053;-0.011;49.04115;13.23021;2.8
20190405_174300;-0.979;-1.633;9.718;0.011;0.085;-0.014;49.04115;13.23021;2.8
20190405_174300;0.646;-1.528;9.836;0.007;-0.005;-0.006;49.04115;13.23021;2.8
20190405_174300;0.534;-1.511;9.632;0.009;0.089;-0.009;49.04115;13.23021;2.8
20190405_174300;0.038;-1.652;9.826;0.014;0.109;-0.011;49.04115;13.23021;2.8
20190405_174300;0.445;-1.437;9.544;-0.008;-0.099;-0.004;49.04115;13.23021;2.8
20190405_174300;-0.448;-1.219;9.529;0.008;0.119;-0.007;49.04115;13.23021;2.8
20190405_174300;-0.886;-1.204;9.563;-0.005;-0.120;-0.004;49.04115;13.23021;2.8
20190405_174300;-0.781;-0.788;9.410;0.012;0.126;-0.004;49.04115;13.23021;2.8
20190405_174301;0.069;-0.840;9.711;-0.011;-0.101;-0.007;49.04115;13.23022;1.8
20190405_174301;0.639;-0.682;10.118;0.010;0.123;-0.007;49.04115;13.23022;1.8
20190405_174301;-0.994;-0.955;9.445;-0.004;-0.128;-0.007;49.04115;13.23022;1.8
20190405_174301;0.630;-0.821;10.051;0.009;0.133;-0.006;49.04115;13.23022;1.8
20190405_174301;-1.195;-0.797;9.733;-0.009;-0.080;-0.009;49.04115;13.23022;1.8
20190405_174301;0.043;-0.773;9.989;-0.000;0.110;-0.010;49.04115;13.23022;1.8
20190405_174301;-1.022;-0.637;9.326;-0.007;-0.073;-0.012;49.04115;13.23022;1.8
20190405_174301;0.294;-0.903;9.769;-0.001;-0.097;-0.006;49.04115;13.23022;1.8
20190405_174301;-0.251;-1.001;9.838;-0.005;0.098;-0.007;49.04115;13.23022;1.8
20190405_174302;-0.991;-0.898;9.419;-0.012;-0.064;-0.010;49.04115;13.23022;1.5
20190405_174302;-1.152;-1.073;9.362;0.000;0.009;-0.010;49.04115;13.23022;1.5
20190405_174302;0.395;-1.130;9.757;-0.005;-0.075;-0.001;49.04115;13.23022;1.5
20190405_174302;-0.330;-1.233;9.647;0.008;0.094;-0.010;49.04115;13.23022;1.5
20190405_174302;-0.644;-1.317;9.757;-0.010;-0.079;-0.010;49.04115;13.23022;1.5
20190405_174302;0.144;-1.228;10.056;-0.004;0.073;0.001;49.04115;13.23022;1.5
20190405_174302;-0.725;-1.235;9.601;0.007;0.039;-0.010;49.04115;13.23022;1.5
20190405_174302;0.251;-1.116;9.642;0.000;-0.030;0.002;49.04115;13.23022;1.5
20190405_174302;-0.567;-1.190;9.793;0.003;0.076;-0.000;49.04115;13.23023;1.1
20190405_174303;-0.620;-1.367;9.714;-0.005;-0.045;-0.006;49.04115;13.23023;1.1
20190405_174303;0.505;-1.192;10.063;-0.000;-0.014;0.008;49.04115;13.23023;1.1
20190405_174303;-0.802;-0.752;9.426;0.009;0.093;-0.002;49.04115;13.23023;1.1
20190405_174303;-1.176;-0.783;9.431;-0.008;-0.076;0.002;49.04115;13.23023;1.1
20190405_174303;0.204;-0.951;9.934;-0.000;0.030;0.003;49.04115;13.23023;1.1
20190405_174303;-1.111;-1.027;9.577;-0.005;-0.042;-0.003;49.04115;13.23023;1.1
20190405_174303;0.247;-0.881;9.663;0.004;-0.008;0.004;49.04115;13.23023;1.1
20190405_174303;-1.140;-0.939;9.366;-0.011;-0.054;-0.009;49.04115;13.23023;0.1
20190405_174304;0.627;-0.886;10.097;0.001;-0.018;0.004;49.04115;13.23023;0.1
20190405_174304;-1.118;-0.962;9.706;0.004;0.064;-0.008;49.04115;13.23023;0.1
20190405_174304;0.053;-0.436;9.989;-0.008;0.092;-0.008;49.04115;13.23023;0.1
20190405_174304;-1.427;-1.298;9.175;0.009;0.133;-0.014;49.04115;13.23023;0.1
20190405_174304;0.474;-0.711;9.991;-0.002;-0.026;-0.010;49.04115;13.23023;0.1
20190405_174304;-0.941;-0.821;9.426;-0.002;0.008;-0.028;49.04115;13.23023;0.1
20190405_174304;-0.189;-0.544;9.745;0.003;0.108;-0.025;49.04115;13.23023;0.1
20190405_174304;-1.010;-0.725;9.599;0.004;0.098;-0.031;49.04115;13.23023;0.1
20190405_174304;0.144;-0.690;9.508;-0.006;-0.133;-0.034;49.04115;13.23023;0.2
20190405_174305;0.491;-0.649;10.197;0.008;0.123;-0.044;49.04115;13.23023;0.2
20190405_174305;-0.943;-0.654;9.383;-0.007;-0.075;-0.042;49.04115;13.23023;0.2
20190405_174305;0.630;-0.646;10.140;-0.004;-0.010;-0.049;49.04115;13.23023;0.2
20190405_174305;-0.644;-0.500;9.481;0.004;0.113;-0.057;49.04115;13.23023;0.2
20190405_174305;-0.335;-0.321;9.503;-0.006;-0.031;-0.065;49.04115;13.23023;0.2
20190405_174305;-0.323;-0.309;9.884;-0.004;-0.020;-0.080;49.04115;13.23023;0.2
20190405_174305;-0.311;-0.321;9.529;-0.006;-0.012;-0.087;49.04115;13.23023;0.2
20190405_174305;-0.187;-0.594;9.893;-0.004;0.007;-0.097;49.04115;13.23023;0.2
20190405_174306;0.010;-0.611;9.912;-0.003;0.006;-0.100;49.04115;13.23023;1.2
20190405_174306;-0.144;-0.728;10.054;-0.008;-0.002;-0.096;49.04115;13.23023;1.2
20190405_174306;0.333;-0.503;9.754;0.004;0.075;-0.096;49.04115;13.23023;1.2
20190405_174306;-0.627;-0.601;9.627;0.001;0.112;-0.093;49.04115;13.23023;1.2
20190405_174306;-0.936;-0.584;9.484;0.013;0.054;-0.103;49.04115;13.23023;1.2
20190405_174306;-0.304;-0.560;9.922;-0.007;-0.054;-0.102;49.04115;13.23023;1.2
20190405_174306;-0.323;-0.560;10.140;0.004;-0.003;-0.083;49.04115;13.23023;1.2
20190405_174306;-0.180;-0.510;10.008;0.001;0.013;-0.086;49.04115;13.23023;1.2
20190405_174306;-0.493;-0.745;9.764;-0.004;0.122;-0.089;49.04115;13.23024;2.2
20190405_174307;-0.618;-0.754;9.532;0.003;-0.023;-0.080;49.04115;13.23024;2.2
20190405_174307;-0.242;-0.716;9.749;-0.004;0.034;-0.075;49.04115;13.23024;2.2
20190405_174307;-0.393;-0.740;9.936;-0.011;-0.037;-0.068;49.04115;13.23024;2.2
20190405_174307;-0.654;-0.881;9.910;-0.008;-0.046;-0.060;49.04115;13.23024;2.2
20190405_174307;-0.211;-0.955;9.814;-0.001;-0.007;-0.042;49.04115;13.23024;2.2
20190405_174307;-0.065;-0.838;9.915;0.001;-0.022;-0.045;49.04115;13.23024;2.2
20190405_174307;-0.278;-0.481;9.759;-0.011;0.060;-0.037;49.04115;13.23024;2.2
20190405_174307;-0.136;-0.615;9.922;-0.021;0.040;-0.026;49.04115;13.23024;2.2
20190405_174308;-0.010;-0.613;9.833;-0.018;0.086;-0.031;49.04114;13.23024;3.3
20190405_174308;-0.333;-0.685;9.828;-0.007;0.108;-0.028;49.04114;13.23024;3.3
20190405_174308;-0.029;-0.797;10.063;-0.020;0.056;-0.034;49.04114;13.23024;3.3
20190405_174308;-0.278;-0.618;9.587;-0.027;0.080;-0.034;49.04114;13.23024;3.3
20190405_174308;-0.397;-0.982;10.104;-0.015;0.017;-0.031;49.04114;13.23024;3.3
20190405_174308;-0.670;-0.986;9.477;-0.012;0.011;-0.038;49.04114;13.23024;3.3
20190405_174308;-0.508;-0.658;8.981;-0.021;0.084;-0.034;49.04114;13.23024;3.3
20190405_174308;-0.670;-1.243;9.893;-0.026;0.028;-0.043;49.04114;13.23024;3.3
20190405_174308;-1.142;-0.946;9.443;-0.004;-0.029;-0.034;49.04114;13.23024;3.3
20190405_174309;-0.725;-1.293;9.721;-0.020;0.015;-0.039;49.04113;13.23026;4.3
20190405_174309;-0.596;-1.331;9.721;-0.007;0.017;-0.050;49.04113;13.23026;4.3
20190405_174309;-0.658;-1.195;9.493;-0.002;-0.038;-0.043;49.04113;13.23026;4.3
20190405_174309;-0.271;-0.977;9.606;0.003;0.062;-0.045;49.04113;13.23026;4.3
20190405_174309;-0.900;-1.305;9.433;-0.007;0.048;-0.054;49.04113;13.23026;4.3
20190405_174309;-0.752;-1.386;9.642;-0.002;-0.016;-0.046;49.04113;13.23026;4.3
20190405_174309;-1.367;-1.252;8.935;-0.008;-0.034;-0.049;49.04113;13.23026;4.3
20190405_174309;-0.615;-1.240;9.084;-0.005;0.076;-0.047;49.04113;13.23026;4.3
20190405_174309;-0.170;-1.109;9.625;-0.002;0.080;-0.043;49.04113;13.23026;4.3
20190405_174310;-1.128;-1.365;9.752;-0.018;0.078;-0.047;49.04111;13.23027;4.7
20190405_174310;-0.960;-1.154;9.738;-0.007;0.015;-0.051;49.04111;13.23027;4.7
20190405_174310;-0.927;-1.439;9.321;-0.018;-0.070;-0.041;49.04111;13.23027;4.7
20190405_174310;-0.036;-1.152;9.515;-0.019;-0.111;-0.044;49.04111;13.23027;4.7
20190405_174310;-0.350;-1.381;9.769;-0.015;0.017;-0.050;49.04111;13.23027;4.7
20190405_174310;-1.192;-1.111;9.417;0.015;0.106;-0.051;49.04111;13.23027;4.7
20190405_174310;-0.917;-1.190;9.177;0.000;0.082;-0.048;49.04111;13.23027;4.7
20190405_174310;-1.628;-1.489;10.259;-0.015;0.017;-0.064;49.04111;13.23027;4.7
20190405_174310;-0.843;-1.362;9.991;-0.010;-0.034;-0.056;49.04110;13.23028;5.0
20190405_174311;-0.369;-1.461;9.723;-0.010;0.016;-0.053;49.04110;13.23028;5.0
20190405_174311;-0.223;-1.331;9.699;-0.017;0.009;-0.057;49.04110;13.23028;5.0
20190405_174311;-0.702;-1.767;9.812;-0.015;0.090;-0.072;49.04110;13.23028;5.0
20190405_174311;-0.412;-1.130;9.460;-0.013;0.053;-0.072;49.04110;13.23028;5.0
20190405_174311;-1.398;-1.501;9.254;0.003;0.024;-0.078;49.04110;13.23028;5.0
20190405_174311;-1.398;-1.264;9.352;-0.005;-0.103;-0.075;49.04110;13.23028;5.0
20190405_174311;-0.448;-1.453;9.491;-0.001;-0.020;-0.073;49.04110;13.23028;5.0
20190405_174311;-0.469;-1.319;9.369;0.011;0.122;-0.076;49.04110;13.23028;5.0
20190405_174311;-1.097;-1.077;9.733;0.006;0.054;-0.078;49.04109;13.23029;5.2
20190405_174312;-0.697;-1.121;9.747;-0.014;-0.042;-0.084;49.04109;13.23029;5.2
20190405_174312;-0.905;-1.176;9.881;-0.021;0.037;-0.087;49.04109;13.23029;5.2
20190405_174312;-0.895;-1.173;9.493;-0.008;-0.068;-0.089;49.04109;13.23029;5.2
20190405_174312;-0.625;-1.417;9.275;-0.013;-0.047;-0.084;49.04109;13.23029;5.2
20190405_174312;-1.015;-1.262;9.388;-0.007;-0.049;-0.084;49.04109;13.23029;5.2
20190405_174312;-1.178;-1.233;9.919;-0.005;-0.023;-0.094;49.04109;13.23029;5.2
20190405_174312;-0.407;-1.101;9.204;0.014;-0.058;-0.083;49.04109;13.23029;5.2
20190405_174312;-0.986;-1.039;9.261;-0.013;0.034;-0.098;49.04109;13.23029;5.2
20190405_174313;-1.417;-1.262;9.496;-0.020;-0.105;-0.101;49.04107;13.23031;5.6
20190405_174313;-0.187;-1.130;8.696;0.001;-0.155;-0.076;49.04107;13.23031;5.6
20190405_174313;0.134;-0.883;9.445;-0.020;-0.008;-0.109;49.04107;13.23031;5.6
20190405_174313;0.086;-1.068;9.828;-0.071;-0.054;-0.094;49.04107;13.23031;5.6
20190405_174313;-0.287;-1.331;9.448;-0.066;0.039;-0.091;49.04107;13.23031;5.6
20190405_174313;0.136;-1.192;10.101;-0.027;0.064;-0.113;49.04107;13.23031;5.6
20190405_174313;-0.565;-1.540;9.654;-0.022;0.012;-0.105;49.04107;13.23031;5.6
20190405_174313;-0.038;-1.719;9.965;-0.017;-0.029;-0.111;49.04107;13.23031;5.6
20190405_174313;0.852;-1.391;9.759;-0.031;-0.059;-0.108;49.04107;13.23031;5.6
20190405_174314;-0.460;-1.774;9.596;-0.035;0.084;-0.105;49.04105;13.23032;6.0
20190405_174314;0.067;-1.779;9.357;-0.049;0.079;-0.123;49.04105;13.23032;6.0
20190405_174314;-0.153;-1.626;9.419;-0.044;-0.078;-0.142;49.04105;13.23032;6.0
20190405_174314;0.144;-1.848;9.807;-0.020;-0.079;-0.128;49.04105;13.23032;6.0
20190405_174314;0.536;-1.805;8.981;-0.028;-0.146;-0.138;49.04105;13.23032;6.0
20190405_174314;1.271;-1.923;9.489;-0.010;-0.041;-0.125;49.04105;13.23032;6.0
20190405_174314;1.216;-1.817;9.441;0.023;0.134;-0.116;49.04105;13.23032;6.0
20190405_174314;0.045;-1.609;9.584;0.031;0.081;-0.125;49.04105;13.23032;6.0
20190405_174314;0.141;-1.446;9.292;0.042;0.079;-0.122;49.04105;13.23032;6.0
20190405_174315;0.788;-1.425;9.228;0.008;-0.024;-0.123;49.04103;13.23033;6.3
20190405_174315;1.226;-1.446;9.462;-0.014;-0.031;-0.117;49.04103;13.23033;6.3
20190405_174315;0.757;-1.511;9.738;-0.021;-0.086;-0.128;49.04103;13.23033;6.3
20190405_174315;0.589;-1.482;10.209;-0.003;0.095;-0.118;49.04103;13.23033;6.3
20190405_174315;0.287;-1.513;9.656;0.016;0.049;-0.108;49.04103;13.23033;6.3
20190405_174315;0.445;-1.401;9.795;0.014;0.024;-0.098;49.04103;13.23033;6.3
20190405_174315;0.426;-1.642;9.742;-0.011;-0.043;-0.090;49.04103;13.23033;6.3
20190405_174315;0.453;-1.496;9.553;-0.035;-0.023;-0.071;49.04103;13.23033;6.3
20190405_174315;0.256;-1.358;9.505;-0.035;-0.020;-0.050;49.04103;13.23033;6.3
20190405_174316;0.436;-1.444;9.546;0.006;-0.066;-0.027;49.04100;13.23034;6.7
20190405_174316;0.443;-1.662;9.213;0.012;0.015;-0.014;49.04100;13.23034;6.7
20190405_174316;0.505;-1.496;9.625;0.012;-0.024;-0.000;49.04100;13.23034;6.7
20190405_174316;0.812;-1.585;9.826;-0.008;-0.084;0.012;49.04100;13.23034;6.7
20190405_174316;0.577;-1.863;9.390;-0.001;-0.031;0.003;49.04100;13.23034;6.7
20190405_174316;0.845;-1.106;9.319;0.009;-0.054;0.013;49.04100;13.23034;6.7
20190405_174316;0.637;-1.683;9.204;0.006;-0.033;0.027;49.04100;13.23034;6.7
20190405_174316;0.345;-1.518;9.565;0.006;-0.035;0.026;49.04100;13.23034;6.7
20190405_174316;0.304;-1.575;9.747;-0.008;-0.009;0.024;49.04100;13.23034;6.7
20190405_174317;0.764;-1.362;9.189;-0.010;-0.061;0.033;49.04097;13.23035;7.2
20190405_174317;0.869;-1.671;9.491;-0.020;-0.015;0.035;49.04097;13.23035;7.2
20190405_174317;0.328;-1.683;9.828;-0.013;0.075;0.034;49.04097;13.23035;7.2
20190405_174317;0.055;-1.678;9.771;-0.002;-0.020;0.031;49.04097;13.23035;7.2
20190405_174317;0.551;-1.800;9.831;-0.005;0.008;0.030;49.04097;13.23035;7.2
20190405_174317;0.441;-1.441;9.639;-0.016;0.032;0.035;49.04097;13.23035;7.2
20190405_174317;0.321;-1.827;9.601;0.000;-0.010;0.036;49.04097;13.23035;7.2
20190405_174317;0.491;-2.437;9.891;0.007;-0.017;0.027;49.04097;13.23035;7.2
20190405_174317;0.503;-2.018;9.606;0.012;0.000;0.030;49.04094;13.23036;7.9
20190405_174318;0.496;-2.061;9.699;0.002;-0.019;0.016;49.04094;13.23036;7.9
20190405_174318;0.668;-2.033;9.211;0.003;-0.030;0.013;49.04094;13.23036;7.9
20190405_174318;0.917;-1.920;9.395;0.014;-0.031;0.013;49.04094;13.23036;7.9
20190405_174318;0.603;-1.714;9.682;-0.004;0.053;0.010;49.04094;13.23036;7.9
20190405_174318;0.460;-1.848;9.374;-0.000;0.028;0.001;49.04094;13.23036;7.9
20190405_174318;0.366;-2.028;9.330;-0.007;0.026;0.013;49.04094;13.23036;7.9
20190405_174318;0.500;-2.009;9.472;0.007;0.030;0.004;49.04094;13.23036;7.9
20190405_174318;0.419;-1.908;9.347;-0.005;0.057;0.007;49.04094;13.23036;7.9
20190405_174319;0.814;-1.853;9.460;0.017;0.072;0.003;49.04090;13.23037;8.5
20190405_174319;0.359;-2.081;8.904;0.015;0.018;0.005;49.04090;13.23037;8.5
20190405_174319;0.347;-1.865;9.371;0.012;-0.009;0.008;49.04090;13.23037;8.5
20190405_174319;0.441;-1.968;9.738;0.003;0.007;0.002;49.04090;13.23037;8.5
20190405_174319;0.649;-1.970;9.046;-0.002;-0.035;-0.001;49.04090;13.23037;8.5
20190405_174319;0.476;-1.810;9.666;-0.004;0.020;0.007;49.04090;13.23037;8.5
20190405_174319;-0.043;-1.949;9.046;-0.019;0.014;0.011;49.04090;13.23037;8.5
20190405_174319;0.230;-2.126;9.953;-0.003;0.034;0.004;49.04090;13.23037;8.5
20190405_174319;0.326;-2.014;9.642;0.004;-0.024;-0.000;49.04090;13.23037;8.5
20190405_174320;0.555;-2.021;9.936;0.010;-0.027;-0.005;49.04086;13.23038;9.1
20190405_174320;0.357;-1.800;9.304;0.007;0.003;0.002;49.04086;13.23038;9.1
20190405_174320;0.998;-1.889;9.438;-0.001;0.010;0.005;49.04086;13.23038;9.1
20190405_174320;0.067;-2.121;9.651;0.009;0.025;-0.007;49.04086;13.23038;9.1
20190405_174320;0.388;-1.657;9.706;0.011;-0.028;0.006;49.04086;13.23038;9.1
20190405_174320;0.682;-2.143;9.493;0.000;-0.024;-0.004;49.04086;13.23038;9.1
20190405_174320;0.512;-2.248;9.850;-0.012;-0.052;-0.010;49.04086;13.23038;9.1
20190405_174320;0.828;-1.741;9.388;-0.012;-0.060;-0.015;49.04086;13.23038;9.1
20190405_174320;1.729;-1.470;9.618;0.007;-0.031;-0.025;49.04082;13.23040;12.6
20190405_174321;0.405;-2.164;9.967;0.017;0.066;-0.026;49.04082;13.23040;12.6
20190405_174321;0.132;-2.081;9.915;0.018;0.045;-0.042;49.04082;13.23040;12.6
20190405_174321;0.615;-1.803;8.708;0.033;-0.060;-0.031;49.04082;13.23040;12.6
20190405_174321;0.967;-2.052;9.699;-0.004;-0.046;-0.042;49.04082;13.23040;12.6
20190405_174321;0.603;-1.870;8.806;-0.027;0.073;-0.032;49.04082;13.23040;12.6
20190405_174321;0.776;-2.064;9.091;-0.006;0.056;-0.022;49.04082;13.23040;12.6
20190405_174321;0.342;-1.980;9.946;0.018;0.103;-0.028;49.04082;13.23040;12.6
20190405_174321;-0.036;-1.779;9.263;-0.002;-0.004;-0.039;49.04082;13.23040;12.6
20190405_174322;0.931;-1.755;8.923;-0.018;-0.108;-0.036;49.04078;13.23041;14.0
20190405_174322;1.188;-1.779;9.014;-0.001;-0.027;-0.029;49.04078;13.23041;14.0
20190405_174322;0.445;-1.930;9.685;-0.019;0.071;-0.023;49.04078;13.23041;14.0
20190405_174322;0.385;-2.186;10.027;-0.033;0.073;-0.023;49.04078;13.23041;14.0
20190405_174322;-0.223;-2.332;10.561;-0.049;-0.031;-0.021;49.04078;13.23041;14.0
20190405_174322;0.309;-2.073;9.946;0.008;-0.038;-0.023;49.04078;13.23041;14.0
20190405_174322;0.996;-2.006;9.175;0.022;-0.006;-0.009;49.04078;13.23041;14.0
20190405_174322;0.728;-1.880;8.732;0.014;0.068;-0.001;49.04078;13.23041;14.0
20190405_174322;0.139;-2.150;9.637;0.012;0.075;-0.015;49.04074;13.23042;14.5
20190405_174323;-0.311;-2.306;9.855;0.001;-0.048;-0.018;49.04074;13.23042;14.5
20190405_174323;0.045;-2.133;10.875;-0.009;-0.060;-0.013;49.04074;13.23042;14.5
20190405_174323;0.405;-1.777;9.843;-0.035;-0.123;-0.000;49.04074;13.23042;14.5
20190405_174323;0.591;-1.990;9.184;0.001;-0.111;0.002;49.04074;13.23042;14.5
20190405_174323;0.680;-2.109;9.213;0.025;0.030;0.019;49.04074;13.23042;14.5
20190405_174323;-0.196;-2.368;9.977;0.011;0.077;0.024;49.04074;13.23042;14.5
20190405_174323;-0.371;-2.066;9.824;0.011;-0.016;0.001;49.04074;13.23042;14.5
20190405_174323;-0.953;-2.131;9.840;0.015;-0.113;-0.001;49.04074;13.23042;14.5
20190405_174324;0.589;-1.853;9.426;0.018;-0.160;0.010;49.04070;13.23044;14.6
20190405_174324;0.560;-2.030;9.553;-0.000;0.016;0.013;49.04070;13.23044;14.6
20190405_174324;0.546;-1.834;9.323;-0.018;0.055;0.004;49.04070;13.23044;14.6
20190405_174324;0.237;-1.745;8.674;-0.030;-0.068;0.006;49.04070;13.23044;14.6
20190405_174324;1.702;-2.624;10.587;-0.062;-0.041;0.015;49.04070;13.23044;14.6
20190405_174324;0.486;-2.009;10.638;-0.025;0.071;0.011;49.04070;13.23044;14.6
20190405_174324;-0.941;-2.746;9.783;0.033;-0.191;-0.005;49.04070;13.23044;14.6
20190405_174324;0.400;-1.650;8.854;0.068;0.045;-0.001;49.04070;13.23044;14.6
20190405_174324;0.572;-1.693;8.442;0.022;-0.031;0.023;49.04070;13.23044;14.6
20190405_174325;0.453;-1.810;9.311;0.034;-0.147;0.001;49.04066;13.23044;14.9
20190405_174325;0.227;-1.487;9.848;0.054;0.038;0.010;49.04066;13.23044;14.9
20190405_174325;0.091;-1.994;10.576;0.012;0.082;0.010;49.04066;13.23044;14.9
20190405_174325;0.074;-2.109;11.095;-0.021;-0.055;0.016;49.04066;13.23044;14.9
20190405_174325;0.529;-2.509;8.964;-0.020;-0.132;0.004;49.04066;13.23044;14.9
20190405_174325;1.233;-2.581;8.801;0.030;-0.106;0.013;49.04066;13.23044;14.9
20190405_174325;1.082;-1.820;8.670;0.038;0.026;0.005;49.04066;13.23044;14.9
20190405_174325;0.419;-1.875;8.847;0.011;0.088;0.007;49.04066;13.23044;14.9
20190405_174325;0.781;-1.678;9.462;0.009;-0.012;0.012;49.04063;13.23045;14.3
20190405_174326;0.759;-2.196;10.183;0.007;-0.051;0.012;49.04063;13.23045;14.3
20190405_174326;0.378;-1.968;9.919;0.004;0.008;0.012;49.04063;13.23045;14.3
20190405_174326;0.417;-1.590;9.718;0.017;0.051;0.009;49.04063;13.23045;14.3
20190405_174326;1.065;-1.595;9.618;0.011;0.024;0.026;49.04063;13.23045;14.3
20190405_174326;0.998;-1.753;9.283;0.003;-0.013;0.034;49.04063;13.23045;14.3
20190405_174326;0.663;-1.757;9.342;0.020;0.034;0.033;49.04063;13.23045;14.3
20190405_174326;0.503;-1.848;9.678;0.003;0.034;0.051;49.04063;13.23045;14.3
20190405_174326;0.201;-1.769;10.271;-0.014;-0.022;0.040;49.04063;13.23045;14.3
20190405_174327;0.136;-2.097;10.006;-0.007;0.017;0.051;49.04059;13.23047;13.9
20190405_174327;0.120;-2.033;9.726;0.002;-0.010;0.067;49.04059;13.23047;13.9
20190405_174327;0.002;-1.982;9.172;0.012;-0.068;0.065;49.04059;13.23047;13.9
20190405_174327;0.072;-2.100;9.656;0.022;0.032;0.075;49.04059;13.23047;13.9
20190405_174327;0.323;-2.102;9.649;0.011;-0.004;0.079;49.04059;13.23047;13.9
20190405_174327;-0.199;-2.081;9.714;0.029;-0.007;0.076;49.04059;13.23047;13.9
20190405_174327;0.230;-1.961;9.225;0.023;-0.040;0.076;49.04059;13.23047;13.9
20190405_174327;-0.127;-1.762;9.323;0.012;-0.042;0.079;49.04059;13.23047;13.9
20190405_174327;0.311;-1.875;9.757;-0.006;-0.012;0.081;49.04059;13.23047;13.9
20190405_174328;0.484;-2.004;9.615;0.015;-0.084;0.076;49.04056;13.23048;13.0
20190405_174328;-0.074;-1.860;9.295;0.014;0.060;0.076;49.04056;13.23048;13.0
20190405_174328;0.180;-1.733;10.259;0.002;-0.038;0.076;49.04056;13.23048;13.0
20190405_174328;-0.268;-1.750;9.673;-0.011;-0.059;0.076;49.04056;13.23048;13.0
20190405_174328;0.045;-1.791;9.757;0.022;0.013;0.076;49.04056;13.23048;13.0
20190405_174328;-0.304;-1.422;8.991;0.022;0.049;0.065;49.04056;13.23048;13.0
20190405_174328;0.294;-1.609;9.307;0.001;0.023;0.079;49.04056;13.23048;13.0
20190405_174328;-0.029;-1.472;9.802;-0.013;-0.041;0.079;49.04056;13.23048;13.0
20190405_174328;0.486;-2.028;10.159;-0.019;-0.020;0.075;49.04053;13.23049;12.2
20190405_174329;-0.591;-1.566;9.833;0.021;-0.013;0.055;49.04053;13.23049;12.2
20190405_174329;0.321;-1.745;9.553;0.025;-0.021;0.071;49.04053;13.23049;12.2
20190405_174329;0.237;-1.906;9.769;0.009;-0.073;0.076;49.04053;13.23049;12.2
20190405_174329;0.053;-2.047;10.456;0.019;0.067;0.063;49.04053;13.23049;12.2
20190405_174329;0.125;-1.820;9.522;0.037;0.064;0.073;49.04053;13.23049;12.2
20190405_174329;-0.318;-1.563;9.754;0.075;0.022;0.067;49.04053;13.23049;12.2
20190405_174329;-0.273;-1.381;9.405;0.077;-0.011;0.058;49.04053;13.23049;12.2
20190405_174329;-0.029;-1.463;9.752;0.034;-0.042;0.056;49.04053;13.23049;12.2
20190405_174329;0.462;-1.176;9.345;-0.029;0.040;0.055;49.04053;13.23049;12.2
20190405_174330;0.529;-1.326;9.144;-0.030;-0.046;0.060;49.04051;13.23050;11.4
20190405_174330;-0.467;-1.760;9.594;-0.010;0.064;0.054;49.04051;13.23050;11.4
20190405_174330;-0.972;-1.161;9.908;-0.002;0.011;0.034;49.04051;13.23050;11.4
20190405_174330;0.069;-1.822;10.238;-0.027;-0.103;0.050;49.04051;13.23050;11.4
20190405_174330;0.321;-1.748;9.898;-0.024;-0.056;0.035;49.04051;13.23050;11.4
20190405_174330;0.553;-1.523;9.474;-0.005;-0.003;0.029;49.04051;13.23050;11.4
20190405_174330;0.141;-1.674;9.058;0.009;-0.004;0.041;49.04051;13.23050;11.4
20190405_174330;0.498;-1.717;8.744;0.040;0.117;0.045;49.04051;13.23050;11.4
20190405_174330;-0.029;-1.331;9.613;0.031;0.054;0.048;49.04048;13.23052;11.1
20190405_174331;-0.388;-1.451;10.058;0.022;0.039;0.029;49.04048;13.23052;11.1
20190405_174331;-0.484;-1.796;10.168;0.030;-0.001;0.030;49.04048;13.23052;11.1
20190405_174331;-0.098;-1.393;9.220;0.033;-0.059;0.032;49.04048;13.23052;11.1
20190405_174331;0.532;-1.336;9.764;0.028;-0.086;0.040;49.04048;13.23052;11.1
20190405_174331;0.845;-1.353;9.673;-0.016;0.017;0.033;49.04048;13.23052;11.1
20190405_174331;-0.105;-1.568;9.836;-0.035;0.092;0.029;49.04048;13.23052;11.1
20190405_174331;0.036;-1.631;9.831;-0.035;-0.044;0.034;49.04048;13.23052;11.1
20190405_174331;0.611;-1.635;9.723;0.004;0.033;0.038;49.04048;13.23052;11.1
20190405_174332;-0.113;-1.468;9.395;0.007;0.026;0.018;49.04046;13.23054;9.7
20190405_174332;0.371;-1.642;9.857;-0.011;-0.038;0.030;49.04046;13.23054;9.7
20190405_174332;0.936;-1.425;9.496;-0.014;-0.067;0.041;49.04046;13.23054;9.7
20190405_174332;-0.378;-0.948;9.263;-0.024;0.054;0.012;49.04046;13.23054;9.7
20190405_174332;0.496;-1.561;9.915;-0.016;0.050;0.023;49.04046;13.23054;9.7
20190405_174332;0.311;-1.551;10.271;0.020;-0.073;0.017;49.04046;13.23054;9.7
20190405_174332;0.208;-1.535;9.757;0.039;-0.123;0.015;49.04046;13.23054;9.7
20190405_174332;-0.041;-1.176;9.089;0.033;0.008;0.009;49.04046;13.23054;9.7
20190405_174332;0.244;-1.611;9.347;-0.024;0.064;0.018;49.04046;13.23054;9.7
20190405_174333;-0.359;-1.563;10.350;-0.008;0.050;-0.010;49.04045;13.23055;8.7
20190405_174333;0.060;-1.690;10.049;0.022;-0.126;-0.017;49.04045;13.23055;8.7
20190405_174333;0.804;-1.283;9.304;0.037;-0.053;0.029;49.04045;13.23055;8.7
20190405_174333;1.451;-0.508;8.651;0.053;0.086;0.008;49.04045;13.23055;8.7
20190405_174333;0.606;-0.807;9.510;0.030;0.186;-0.007;49.04045;13.23055;8.7
20190405_174333;0.012;-1.135;9.747;-0.022;-0.012;0.001;49.04045;13.23055;8.7
20190405_174333;0.165;-1.429;10.530;-0.027;0.003;-0.013;49.04045;13.23055;8.7
20190405_174333;0.721;-1.247;9.845;-0.039;0.034;-0.006;49.04045;13.23055;8.7
20190405_174333;0.687;-1.022;9.376;-0.007;-0.048;-0.016;49.04045;13.23055;8.7
20190405_174334;0.385;-0.603;9.642;0.029;0.152;-0.009;49.04043;13.23057;8.5
20190405_174334;-0.084;-1.657;10.010;0.023;-0.146;-0.010;49.04043;13.23057;8.5
20190405_174334;1.176;-1.006;9.613;-0.037;0.015;-0.018;49.04043;13.23057;8.5
20190405_174334;1.401;-1.353;9.453;-0.041;-0.070;-0.009;49.04043;13.23057;8.5
20190405_174334;0.544;-1.614;9.216;-0.031;0.062;0.014;49.04043;13.23057;8.5
20190405_174334;-0.153;-1.451;9.596;0.004;0.013;0.008;49.04043;13.23057;8.5
20190405_174334;0.096;-1.243;9.936;0.037;0.032;-0.006;49.04043;13.23057;8.5
20190405_174334;0.309;-1.317;9.905;0.030;-0.031;-0.004;49.04043;13.23057;8.5
20190405_174335;0.776;-1.180;9.503;0.004;-0.049;0.004;49.04041;13.23059;8.9
20190405_174335;0.778;-1.113;9.560;0.003;0.028;0.009;49.04041;13.23059;8.9
20190405_174335;1.008;-1.176;8.900;0.014;0.059;0.024;49.04041;13.23059;8.9
20190405_174335;0.050;-1.657;9.682;0.017;0.032;0.005;49.04041;13.23059;8.9
20190405_174335;-0.148;-0.960;9.546;-0.022;0.048;0.002;49.04041;13.23059;8.9
20190405_174335;0.098;-1.537;9.757;-0.026;-0.015;0.023;49.04041;13.23059;8.9
20190405_174335;0.397;-1.444;9.934;0.011;0.034;0.016;49.04041;13.23059;8.9
20190405_174335;0.175;-1.425;10.101;0.020;-0.036;0.014;49.04041;13.23059;8.9
20190405_174335;0.371;-1.200;9.721;0.008;-0.023;0.005;49.04041;13.23059;8.9
20190405_174336;0.541;-1.240;9.445;-0.014;-0.001;0.015;49.04040;13.23061;8.7
20190405_174336;0.879;-1.247;9.374;-0.030;-0.029;0.018;49.04040;13.23061;8.7
20190405_174336;-0.141;-1.051;9.319;-0.023;0.072;-0.004;49.04040;13.23061;8.7
20190405_174336;-0.165;-1.597;9.919;-0.043;-0.022;0.008;49.04040;13.23061;8.7
20190405_174336;1.429;-1.650;10.219;-0.026;-0.077;0.021;49.04040;13.23061;8.7
20190405_174336;0.852;-1.415;9.503;0.018;0.095;0.004;49.04040;13.23061;8.7
20190405_174336;-0.247;-1.463;9.721;0.051;0.091;0.026;49.04040;13.23061;8.7
20190405_174336;-0.321;-1.279;9.807;0.034;0.045;0.004;49.04040;13.23061;8.7
20190405_174336;-0.462;-1.128;9.682;-0.017;-0.123;-0.008;49.04040;13.23061;8.7
20190405_174337;0.642;-1.073;9.390;-0.034;-0.102;0.016;49.04038;13.23062;7.8
20190405_174337;1.604;-0.955;9.369;-0.034;-0.054;0.026;49.04038;13.23062;7.8
20190405_174337;0.515;-1.793;9.515;-0.024;0.130;0.016;49.04038;13.23062;7.8
20190405_174337;-0.388;-1.329;9.764;0.039;0.031;0.010;49.04038;13.23062;7.8
20190405_174337;0.239;-1.341;9.783;0.055;-0.042;0.012;49.04038;13.23062;7.8
20190405_174337;0.218;-1.863;9.515;0.064;-0.096;-0.018;49.04038;13.23062;7.8
20190405_174337;0.843;-1.080;9.522;0.013;-0.054;0.021;49.04038;13.23062;7.8
20190405_174337;1.121;-1.159;9.749;-0.033;0.020;0.010;49.04038;13.23062;7.8
20190405_174337;1.077;-1.393;9.390;-0.023;0.076;0.007;49.04036;13.23064;7.7
20190405_174338;0.187;-1.381;9.802;-0.009;0.020;0.019;49.04036;13.23064;7.7
20190405_174338;0.132;-1.295;9.472;0.016;-0.046;-0.000;49.04036;13.23064;7.7
20190405_174338;0.139;-1.020;9.146;0.023;-0.067;0.001;49.04036;13.23064;7.7
20190405_174338;0.807;-1.164;9.651;0.052;-0.049;0.012;49.04036;13.23064;7.7
20190405_174338;0.412;-1.322;9.773;0.030;0.069;0.001;49.04036;13.23064;7.7
20190405_174338;0.848;-1.149;10.087;-0.015;-0.112;0.002;49.04036;13.23064;7.7
20190405_174338;0.725;-1.233;9.596;-0.013;0.015;0.013;49.04036;13.23064;7.7
20190405_174338;0.888;-1.130;9.759;-0.001;-0.002;-0.003;49.04036;13.23064;7.7
20190405_174339;0.620;-1.073;9.730;-0.026;-0.020;-0.004;49.04035;13.23065;8.2
20190405_174339;0.603;-1.027;9.247;-0.013;-0.016;0.008;49.04035;13.23065;8.2
20190405_174339;0.575;-1.276;9.754;-0.016;0.060;0.010;49.04035;13.23065;8.2
20190405_174339;0.565;-1.489;9.881;-0.022;0.003;-0.007;49.04035;13.23065;8.2
20190405_174339;1.365;-1.326;9.946;-0.009;-0.009;0.005;49.04035;13.23065;8.2
20190405_174339;0.555;-1.077;9.639;-0.002;0.039;0.004;49.04035;13.23065;8.2
20190405_174339;0.991;-1.360;9.740;-0.017;-0.021;-0.001;49.04035;13.23065;8.2
20190405_174339;0.654;-1.326;9.517;-0.023;-0.034;0.001;49.04035;13.23065;8.2
20190405_174339;0.752;-1.295;9.867;-0.008;0.013;0.007;49.04035;13.23065;8.2
20190405_174339;0.227;-1.099;9.429;-0.025;-0.039;0.001;49.04033;13.23067;7.9
20190405_174340;0.982;-1.405;9.498;-0.004;0.010;0.008;49.04033;13.23067;7.9
20190405_174340;0.783;-1.360;9.709;-0.002;0.049;0.008;49.04033;13.23067;7.9
20190405_174340;0.187;-1.286;9.553;0.011;0.051;-0.005;49.04033;13.23067;7.9
20190405_174340;0.249;-1.216;9.455;0.031;-0.057;-0.002;49.04033;13.23067;7.9
20190405_174340;0.804;-1.425;9.939;0.031;0.017;0.007;49.04033;13.23067;7.9
20190405_174340;0.627;-1.422;9.927;0.022;0.068;0.007;49.04033;13.23067;7.9
20190405_174340;0.623;-1.022;9.311;-0.002;0.065;0.003;49.04033;13.23067;7.9
20190405_174340;0.393;-1.355;9.874;0.017;-0.002;-0.007;49.04033;13.23067;7.9
20190405_174341;1.238;-1.049;9.706;0.029;0.042;0.006;49.04031;13.23069;7.1
20190405_174341;0.316;-1.010;9.000;0.034;0.117;-0.009;49.04031;13.23069;7.1
20190405_174341;-0.007;-0.972;9.342;0.014;0.031;-0.004;49.04031;13.23069;7.1
20190405_174341;0.716;-1.190;10.080;-0.004;0.007;0.007;49.04031;13.23069;7.1
20190405_174341;0.429;-1.039;9.855;-0.018;0.003;0.003;49.04031;13.23069;7.1
20190405_174341;0.474;-1.281;9.558;-0.007;-0.038;-0.013;49.04031;13.23069;7.1
20190405_174341;1.176;-1.188;9.714;-0.011;-0.041;0.005;49.04031;13.23069;7.1
20190405_174341;1.037;-0.895;9.757;-0.017;0.028;0.007;49.04031;13.23069;7.1
20190405_174341;-0.223;-1.020;9.175;-0.019;0.068;-0.014;49.04029;13.23071;7.6
20190405_174342;0.472;-1.295;10.089;-0.017;-0.104;-0.001;49.04029;13.23071;7.6
20190405_174342;0.596;-1.178;9.575;-0.029;-0.111;0.003;49.04029;13.23071;7.6
20190405_174342;0.831;-1.405;9.761;-0.024;0.035;0.012;49.04029;13.23071;7.6
20190405_174342;0.450;-1.446;9.565;-0.002;0.040;-0.001;49.04029;13.23071;7.6
20190405_174342;0.342;-1.252;9.706;0.022;0.028;0.004;49.04029;13.23071;7.6
20190405_174342;0.127;-1.039;9.443;0.017;0.034;-0.007;49.04029;13.23071;7.6
20190405_174342;0.699;-1.307;9.237;0.015;-0.081;-0.001;49.04029;13.23071;7.6
20190405_174342;0.917;-1.140;9.828;0.023;-0.020;0.002;49.04029;13.23071;7.6
20190405_174343;0.898;-1.154;9.704;0.014;0.108;-0.004;49.04027;13.23073;8.2
20190405_174343;0.675;-0.929;9.606;0.023;0.019;0.008;49.04027;13.23073;8.2
20190405_174343;-0.180;-1.049;9.702;0.037;0.012;-0.017;49.04027;13.23073;8.2
20190405_174343;0.338;-0.634;9.781;0.031;-0.016;-0.007;49.04027;13.23073;8.2
20190405_174343;0.438;-0.931;9.623;0.001;-0.073;-0.006;49.04027;13.23073;8.2
20190405_174343;1.015;-0.697;9.910;-0.020;-0.128;-0.015;49.04027;13.23073;8.2
20190405_174343;0.673;-1.176;9.410;-0.027;0.003;0.007;49.04027;13.23073;8.2
20190405_174343;0.843;-1.063;9.723;-0.013;-0.007;-0.004;49.04027;13.23073;8.2
20190405_174343;0.567;-1.271;9.544;0.014;0.001;-0.004;49.04027;13.23073;8.2
20190405_174344;1.039;-1.173;9.958;-0.004;0.011;-0.006;49.04026;13.23075;8.0
20190405_174344;1.331;-1.089;9.292;0.002;-0.036;0.004;49.04026;13.23075;8.0
20190405_174344;-0.079;-1.159;9.685;0.002;0.086;-0.004;49.04026;13.23075;8.0
20190405_174344;-0.259;-1.018;9.690;-0.021;0.087;-0.017;49.04026;13.23075;8.0
20190405_174344;-0.706;-1.188;9.340;-0.022;-0.040;-0.006;49.04026;13.23075;8.0
20190405_174344;0.053;-1.080;9.338;-0.011;-0.082;-0.012;49.04026;13.23075;8.0
20190405_174344;1.212;-1.195;9.754;-0.018;-0.103;-0.010;49.04026;13.23075;8.0
20190405_174344;0.874;-1.137;9.807;0.008;-0.011;0.001;49.04026;13.23075;8.0
20190405_174344;0.366;-1.295;10.049;0.004;0.062;-0.003;49.04026;13.23075;8.0
20190405_174345;0.646;-1.027;9.670;0.002;0.034;-0.009;49.04024;13.23076;7.9
20190405_174345;-0.024;-1.063;9.649;-0.008;-0.002;-0.013;49.04024;13.23076;7.9
20190405_174345;0.251;-1.063;9.706;-0.033;-0.002;0.003;49.04024;13.23076;7.9
20190405_174345;0.893;-1.132;9.790;-0.051;-0.025;0.004;49.04024;13.23076;7.9
20190405_174345;0.800;-1.008;9.326;-0.038;0.002;-0.006;49.04024;13.23076;7.9
20190405_174345;0.041;-1.195;9.575;-0.005;0.039;-0.002;49.04024;13.23076;7.9
20190405_174345;0.529;-1.113;9.749;0.003;-0.060;-0.014;49.04024;13.23076;7.9
20190405_174345;0.783;-1.022;9.752;-0.009;-0.107;-0.009;49.04024;13.23076;7.9
20190405_174345;0.749;-1.097;9.714;-0.020;-0.029;0.002;49.04022;13.23078;8.0
20190405_174346;0.991;-1.291;9.718;-0.017;-0.022;-0.012;49.04022;13.23078;8.0
20190405_174346;1.077;-1.238;10.094;-0.001;0.042;-0.011;49.04022;13.23078;8.0
20190405_174346;-0.067;-1.149;9.285;0.000;0.012;-0.002;49.04022;13.23078;8.0
20190405_174346;0.405;-1.020;9.043;0.015;-0.037;-0.022;49.04022;13.23078;8.0
20190405_174346;0.508;-0.977;9.398;0.007;-0.007;-0.023;49.04022;13.23078;8.0
20190405_174346;0.852;-0.910;9.445;-0.011;-0.041;-0.003;49.04022;13.23078;8.0
20190405_174346;0.479;-1.094;9.900;-0.003;-0.005;-0.023;49.04022;13.23078;8.0
20190405_174346;0.749;-1.255;9.814;-0.009;-0.040;-0.007;49.04022;13.23078;8.0
20190405_174347;0.733;-1.118;9.697;-0.005;-0.026;-0.024;49.04020;13.23080;7.5
20190405_174347;1.350;-1.252;9.620;-0.004;0.015;-0.023;49.04020;13.23080;7.5
20190405_174347;1.451;-1.240;9.438;-0.024;0.053;0.005;49.04020;13.23080;7.5
20190405_174347;0.692;-1.405;9.560;-0.049;0.068;-0.021;49.04020;13.23080;7.5
20190405_174347;-0.132;-1.252;9.862;-0.022;0.137;-0.018;49.04020;13.23080;7.5
20190405_174347;-0.658;-1.314;9.285;-0.005;-0.119;-0.018;49.04020;13.23080;7.5
20190405_174347;0.694;-1.326;9.615;0.006;-0.181;-0.028;49.04020;13.23080;7.5
20190405_174347;1.216;-1.173;10.386;0.035;0.081;-0.026;49.04020;13.23080;7.5
20190405_174348;1.020;-1.154;9.213;0.010;0.062;-0.018;49.04019;13.23081;7.3
20190405_174348;0.752;-1.156;9.726;-0.008;-0.021;-0.010;49.04019;13.23081;7.3
20190405_174348;0.757;-1.207;9.649;0.001;-0.005;-0.012;49.04019;13.23081;7.3
20190405_174348;0.388;-1.156;9.429;0.012;0.179;-0.003;49.04019;13.23081;7.3
20190405_174348;0.347;-1.188;9.996;-0.008;0.157;0.004;49.04019;13.23081;7.3
20190405_174348;-0.086;-1.276;9.807;-0.005;-0.128;-0.009;49.04019;13.23081;7.3
20190405_174348;0.745;-1.405;10.219;0.003;-0.187;-0.010;49.04019;13.23081;7.3
20190405_174348;1.398;-1.444;10.331;-0.012;-0.021;0.007;49.04019;13.23081;7.3
20190405_174348;1.144;-1.252;10.066;-0.035;-0.019;0.010;49.04017;13.23083;8.4
20190405_174349;0.340;-1.396;9.659;-0.015;0.123;0.007;49.04017;13.23083;8.4
20190405_174349;0.496;-1.053;8.995;0.008;0.053;0.001;49.04017;13.23083;8.4
20190405_174349;0.309;-1.283;9.431;0.003;-0.048;0.006;49.04017;13.23083;8.4
20190405_174349;0.330;-1.480;10.089;0.001;-0.013;0.007;49.04017;13.23083;8.4
20190405_174349;0.299;-1.530;9.345;0.015;0.111;0.006;49.04017;13.23083;8.4
20190405_174349;0.060;-1.200;9.613;0.014;0.065;0.010;49.04017;13.23083;8.4
20190405_174349;0.213;-1.197;9.299;-0.008;-0.064;0.024;49.04017;13.23083;8.4
20190405_174349;0.634;-1.121;9.819;-0.002;0.016;0.016;49.04017;13.23083;8.4
20190405_174350;0.409;-1.279;9.757;-0.005;-0.071;0.030;49.04015;13.23085;8.1
20190405_174350;0.658;-1.396;9.817;-0.010;0.088;0.026;49.04015;13.23085;8.1
20190405_174350;1.080;-1.314;9.304;-0.012;0.055;0.030;49.04015;13.23085;8.1
20190405_174350;-0.843;-1.544;9.263;-0.022;0.186;0.024;49.04015;13.23085;8.1
20190405_174350;0.156;-1.851;9.893;-0.013;-0.011;0.027;49.04015;13.23085;8.1
20190405_174350;0.350;-1.384;9.455;-0.003;0.071;0.029;49.04015;13.23085;8.1
20190405_174350;1.365;-1.202;9.807;-0.013;0.103;0.028;49.04015;13.23085;8.1
20190405_174350;-0.364;-1.307;9.489;0.012;0.027;0.024;49.04015;13.23085;8.1
20190405_174350;0.117;-1.338;9.441;0.013;0.001;0.024;49.04015;13.23085;8.1
20190405_174351;0.323;-1.449;9.740;0.009;0.017;0.021;49.04013;13.23087;8.0
20190405_174351;0.594;-1.372;9.611;0.007;-0.048;0.023;49.04013;13.23087;8.0
20190405_174351;0.464;-1.228;9.177;0.015;0.037;0.030;49.04013;13.23087;8.0
20190405_174351;-0.069;-1.159;9.639;0.020;0.121;0.026;49.04013;13.23087;8.0
20190405_174351;-0.280;-1.439;10.154;0.009;-0.060;0.011;49.04013;13.23087;8.0
20190405_174351;0.781;-1.599;9.565;-0.008;-0.029;0.035;49.04013;13.23087;8.0
20190405_174351;0.936;-1.494;9.589;0.003;0.050;0.012;49.04013;13.23087;8.0
20190405_174351;0.651;-1.405;10.027;-0.010;-0.037;-0.003;49.04013;13.23087;8.0
20190405_174351;0.472;-1.566;9.678;0.003;-0.058;0.007;49.04013;13.23087;8.0
20190405_174352;0.287;-1.370;9.419;0.014;0.077;0.001;49.04011;13.23089;8.1
20190405_174352;0.223;-1.326;9.579;-0.004;0.001;0.002;49.04011;13.23089;8.1
20190405_174352;0.335;-1.293;9.615;-0.007;-0.002;0.014;49.04011;13.23089;8.1
20190405_174352;0.299;-1.559;9.647;-0.001;0.031;0.005;49.04011;13.23089;8.1
20190405_174352;0.170;-1.370;9.757;0.007;0.002;0.001;49.04011;13.23089;8.1
20190405_174352;0.045;-1.291;9.484;0.012;-0.012;-0.003;49.04011;13.23089;8.1
20190405_174352;0.486;-1.216;9.524;-0.008;0.014;0.002;49.04011;13.23089;8.1
20190405_174352;0.541;-1.439;9.766;-0.016;-0.010;0.004;49.04011;13.23089;8.1
20190405_174352;0.464;-1.463;9.924;-0.018;0.054;0.007;49.04009;13.23091;7.8
20190405_174353;-0.069;-1.393;9.608;-0.034;-0.001;-0.000;49.04009;13.23091;7.8
20190405_174353;0.223;-1.540;9.321;-0.010;0.028;-0.004;49.04009;13.23091;7.8
20190405_174353;0.338;-1.269;9.553;-0.009;-0.022;-0.006;49.04009;13.23091;7.8
20190405_174353;0.184;-1.439;9.754;-0.016;-0.030;-0.006;49.04009;13.23091;7.8
20190405_174353;0.634;-1.638;9.673;-0.026;0.012;0.001;49.04009;13.23091;7.8
20190405_174353;0.278;-1.559;9.587;-0.018;-0.061;-0.003;49.04009;13.23091;7.8
20190405_174353;0.206;-1.544;9.400;-0.005;0.003;-0.011;49.04009;13.23091;7.8
20190405_174353;0.608;-1.762;9.764;0.014;0.002;-0.004;49.04009;13.23091;7.8
20190405_174354;0.371;-1.506;9.905;0.033;0.145;-0.014;49.04008;13.23094;8.1
20190405_174354;0.144;-1.408;9.905;0.051;0.111;-0.014;49.04008;13.23094;8.1
20190405_174354;-0.141;-1.176;9.479;0.018;0.064;-0.017;49.04008;13.23094;8.1
20190405_174354;0.242;-1.176;9.498;-0.016;-0.013;-0.017;49.04008;13.23094;8.1
20190405_174354;0.280;-1.381;9.639;-0.032;-0.052;-0.008;49.04008;13.23094;8.1
20190405_174354;0.168;-1.068;9.639;-0.018;0.028;-0.014;49.04008;13.23094;8.1
20190405_174354;0.520;-1.161;9.941;-0.013;-0.006;-0.015;49.04008;13.23094;8.1
20190405_174354;-0.091;-1.300;9.714;-0.019;0.046;-0.017;49.04008;13.23094;8.1
20190405_174354;0.160;-1.343;9.778;-0.030;0.004;-0.013;49.04006;13.23096;8.8
20190405_174355;0.512;-1.465;9.852;-0.061;0.034;0.002;49.04006;13.23096;8.8
20190405_174355;0.347;-1.377;9.654;-0.070;0.035;-0.009;49.04006;13.23096;8.8
20190405_174355;-0.316;-1.523;9.376;-0.065;-0.022;-0.008;49.04006;13.23096;8.8
20190405_174355;-0.390;-1.262;9.311;-0.035;-0.004;-0.012;49.04006;13.23096;8.8
20190405_174355;0.045;-1.386;9.364;-0.018;-0.027;-0.017;49.04006;13.23096;8.8
20190405_174355;0.242;-1.528;9.766;-0.031;-0.001;-0.012;49.04006;13.23096;8.8
20190405_174355;0.515;-1.602;10.197;-0.008;-0.014;-0.003;49.04006;13.23096;8.8
20190405_174355;-0.388;-1.657;9.757;0.000;0.117;-0.015;49.04006;13.23096;8.8
20190405_174355;-0.395;-1.472;9.347;0.006;-0.025;-0.012;49.04004;13.23098;9.3
20190405_174356;-0.093;-1.391;9.369;-0.013;-0.015;-0.017;49.04004;13.23098;9.3
20190405_174356;0.393;-1.463;9.376;-0.021;-0.069;-0.009;49.04004;13.23098;9.3
20190405_174356;-0.038;-1.810;9.785;-0.004;-0.003;-0.014;49.04004;13.23098;9.3
20190405_174356;-0.043;-1.537;10.087;0.012;0.032;-0.014;49.04004;13.23098;9.3
20190405_174356;0.273;-1.532;9.548;0.022;-0.092;-0.018;49.04004;13.23098;9.3
20190405_174356;-0.177;-1.444;9.896;-0.003;0.050;-0.010;49.04004;13.23098;9.3
20190405_174356;0.125;-1.528;9.328;-0.030;0.041;-0.010;49.04004;13.23098;9.3
20190405_174356;-0.093;-1.832;9.479;-0.024;-0.007;-0.020;49.04002;13.23100;10.3
20190405_174357;-0.220;-1.532;10.238;0.025;-0.011;-0.019;49.04002;13.23100;10.3
20190405_174357;0.462;-1.506;9.481;0.036;0.035;-0.011;49.04002;13.23100;10.3
20190405_174357;0.544;-1.556;9.824;-0.016;-0.025;-0.007;49.04002;13.23100;10.3
20190405_174357;-0.488;-1.698;9.740;-0.040;0.025;-0.017;49.04002;13.23100;10.3
20190405_174357;-0.211;-1.642;10.180;-0.018;0.057;-0.011;49.04002;13.23100;10.3
20190405_174357;0.539;-2.081;9.445;-0.024;0.055;-0.015;49.04002;13.23100;10.3
20190405_174357;0.074;-1.496;9.644;0.004;0.013;-0.023;49.04002;13.23100;10.3
20190405_174357;-0.438;-1.769;9.584;-0.013;0.023;-0.016;49.04002;13.23100;10.3
20190405_174357;0.239;-1.736;9.496;-0.060;-0.171;-0.019;49.03999;13.23102;11.2
20190405_174358;0.539;-1.798;9.347;-0.044;-0.160;-0.014;49.03999;13.23102;11.2
20190405_174358;0.563;-1.525;9.345;-0.031;-0.017;-0.010;49.03999;13.23102;11.2
20190405_174358;0.235;-2.038;9.807;-0.032;-0.042;-0.016;49.03999;13.23102;11.2
20190405_174358;0.620;-1.745;9.405;-0.027;-0.069;-0.015;49.03999;13.23102;11.2
20190405_174358;0.838;-2.119;10.281;0.018;-0.101;-0.006;49.03999;13.23102;11.2
20190405_174358;0.316;-1.959;9.589;0.019;0.109;-0.014;49.03999;13.23102;11.2
20190405_174358;-0.057;-1.915;9.362;0.015;0.053;-0.016;49.03999;13.23102;11.2
20190405_174358;0.378;-2.002;9.139;0.017;-0.115;-0.015;49.03999;13.23102;11.2
20190405_174359;0.038;-1.966;9.642;0.022;-0.105;-0.020;49.03997;13.23104;11.9
20190405_174359;0.342;-1.997;9.551;0.039;-0.034;-0.031;49.03997;13.23104;11.9
20190405_174359;1.228;-1.796;9.728;0.019;0.018;-0.007;49.03997;13.23104;11.9
20190405_174359;0.783;-1.915;9.819;-0.015;0.114;-0.015;49.03997;13.23104;11.9
20190405_174359;0.338;-1.875;9.477;-0.020;0.086;-0.009;49.03997;13.23104;11.9
20190405_174359;0.395;-1.870;9.271;-0.013;0.041;-0.020;49.03997;13.23104;11.9
20190405_174359;0.424;-1.868;9.211;-0.019;-0.024;-0.016;49.03997;13.23104;11.9
20190405_174359;0.096;-1.896;9.160;-0.022;-0.001;-0.018;49.03997;13.23104;11.9
20190405_174359;0.457;-1.915;8.991;-0.018;-0.126;-0.012;49.03994;13.23107;11.9
20190405_174400;0.704;-1.887;9.326;0.000;-0.064;-0.007;49.03994;13.23107;11.9
20190405_174400;0.745;-2.002;9.958;0.014;-0.048;-0.003;49.03994;13.23107;11.9
20190405_174400;0.237;-2.117;9.366;0.007;0.059;-0.009;49.03994;13.23107;11.9
20190405_174400;0.048;-1.880;8.859;0.007;0.095;-0.010;49.03994;13.23107;11.9
20190405_174400;0.038;-1.820;9.584;0.022;0.068;0.004;49.03994;13.23107;11.9
20190405_174400;0.431;-1.863;9.290;0.027;-0.081;-0.015;49.03994;13.23107;11.9
20190405_174400;0.666;-1.875;9.984;0.017;-0.112;-0.004;49.03994;13.23107;11.9
20190405_174400;0.747;-1.889;10.245;0.014;0.000;-0.007;49.03994;13.23107;11.9
20190405_174401;0.737;-1.793;9.761;-0.002;-0.082;-0.005;49.03990;13.23110;12.5
20190405_174401;0.769;-1.765;9.474;-0.012;0.015;0.005;49.03990;13.23110;12.5
20190405_174401;-0.031;-1.856;9.723;-0.000;0.019;-0.007;49.03990;13.23110;12.5
20190405_174401;-0.077;-2.066;9.699;0.009;0.037;-0.012;49.03990;13.23110;12.5
20190405_174401;0.328;-1.568;8.911;0.016;0.017;-0.006;49.03990;13.23110;12.5
20190405_174401;0.824;-1.748;9.850;0.003;0.064;-0.001;49.03990;13.23110;12.5
20190405_174401;0.290;-1.961;9.393;-0.010;0.081;0.002;49.03990;13.23110;12.5
20190405_174401;-0.232;-2.006;9.330;-0.005;0.032;0.006;49.03990;13.23110;12.5
20190405_174401;0.206;-1.736;9.211;0.001;-0.012;0.011;49.03987;13.23112;13.0
20190405_174402;-0.117;-2.061;9.383;-0.007;0.067;-0.008;49.03987;13.23112;13.0
20190405_174402;0.402;-1.911;9.733;-0.003;-0.010;0.003;49.03987;13.23112;13.0
20190405_174402;0.263;-1.901;8.986;-0.000;0.098;0.004;49.03987;13.23112;13.0
20190405_174402;-0.072;-2.023;9.613;0.014;0.069;0.004;49.03987;13.23112;13.0
20190405_174402;0.134;-1.949;9.680;0.004;0.017;0.013;49.03987;13.23112;13.0
20190405_174402;-0.292;-2.069;9.225;-0.008;-0.055;-0.000;49.03987;13.23112;13.0
20190405_174402;0.338;-2.078;9.625;0.017;-0.079;0.005;49.03987;13.23112;13.0
20190405_174402;0.263;-1.757;10.006;0.024;-0.034;0.012;49.03987;13.23112;13.0
20190405_174403;-0.486;-1.827;9.599;0.006;0.031;-0.002;49.03983;13.23115;12.8
20190405_174403;0.208;-1.911;10.142;0.008;0.067;0.009;49.03983;13.23115;12.8
20190405_174403;0.290;-1.803;9.606;-0.004;0.024;-0.007;49.03983;13.23115;12.8
20190405_174403;0.754;-1.750;9.735;0.003;0.054;-0.000;49.03983;13.23115;12.8
20190405_174403;-0.467;-1.994;9.529;-0.003;0.066;0.004;49.03983;13.23115;12.8
20190405_174403;-0.053;-2.100;9.553;0.009;0.134;0.001;49.03983;13.23115;12.8
20190405_174403;0.283;-1.839;9.565;0.002;-0.007;-0.011;49.03983;13.23115;12.8
20190405_174403;0.168;-1.860;9.386;0.004;-0.001;0.005;49.03983;13.23115;12.8
20190405_174403;0.168;-1.695;9.366;-0.005;0.021;-0.004;49.03980;13.23117;12.7
20190405_174404;0.651;-2.016;9.855;-0.010;-0.069;0.005;49.03980;13.23117;12.7
20190405_174404;0.306;-1.810;9.493;-0.004;-0.048;0.005;49.03980;13.23117;12.7
20190405_174404;0.045;-2.035;9.261;0.008;0.108;-0.004;49.03980;13.23117;12.7
20190405_174404;0.860;-1.868;9.601;-0.021;-0.012;-0.003;49.03980;13.23117;12.7
20190405_174404;0.335;-1.987;9.002;-0.017;-0.075;0.012;49.03980;13.23117;12.7
20190405_174404;0.045;-1.863;9.809;0.006;0.019;-0.008;49.03980;13.23117;12.7
20190405_174404;0.089;-1.812;9.433;0.009;0.001;-0.001;49.03980;13.23117;12.7
20190405_174404;0.249;-2.133;9.929;0.008;0.094;-0.006;49.03980;13.23117;12.7
20190405_174404;0.450;-1.676;9.268;-0.008;-0.068;-0.008;49.03977;13.23120;12.7
20190405_174405;0.376;-1.927;9.321;-0.011;0.074;-0.010;49.03977;13.23120;12.7
20190405_174405;0.359;-1.911;9.503;0.000;-0.095;-0.010;49.03977;13.23120;12.7
20190405_174405;-0.192;-1.987;9.208;0.002;-0.092;-0.016;49.03977;13.23120;12.7
20190405_174405;0.196;-1.870;9.838;-0.011;-0.089;-0.016;49.03977;13.23120;12.7
20190405_174405;0.788;-1.956;9.292;-0.009;-0.079;-0.020;49.03977;13.23120;12.7
20190405_174405;0.675;-1.930;9.678;0.003;-0.060;-0.024;49.03977;13.23120;12.7
20190405_174405;0.409;-1.975;9.256;0.002;-0.023;-0.026;49.03977;13.23120;12.7
20190405_174405;0.321;-1.920;9.122;0.009;-0.012;-0.030;49.03977;13.23120;12.7
20190405_174406;0.306;-1.982;10.032;-0.006;-0.073;-0.031;49.03974;13.23122;12.7
20190405_174406;0.539;-1.884;9.400;0.007;-0.058;-0.036;49.03974;13.23122;12.7
20190405_174406;0.548;-1.681;9.783;-0.002;-0.067;-0.039;49.03974;13.23122;12.7
20190405_174406;0.101;-1.633;9.742;-0.011;0.034;-0.044;49.03974;13.23122;12.7
20190405_174406;0.256;-2.212;10.240;-0.019;0.063;-0.047;49.03974;13.23122;12.7
20190405_174406;-0.318;-2.100;9.347;0.013;0.060;-0.050;49.03974;13.23122;12.7
20190405_174406;0.833;-2.030;10.183;0.003;0.029;-0.047;49.03974;13.23122;12.7
20190405_174406;0.673;-1.800;8.488;0.018;-0.002;-0.031;49.03974;13.23122;12.7
20190405_174406;0.261;-1.817;9.120;-0.018;-0.070;-0.046;49.03971;13.23125;12.7
20190405_174407;-0.649;-2.030;9.757;0.000;0.036;-0.043;49.03971;13.23125;12.7
20190405_174407;-0.153;-1.939;9.244;0.026;0.013;-0.039;49.03971;13.23125;12.7
20190405_174407;-0.043;-2.251;9.709;0.010;0.024;-0.054;49.03971;13.23125;12.7
20190405_174407;0.060;-2.447;9.060;-0.020;0.005;-0.049;49.03971;13.23125;12.7
20190405_174407;0.706;-2.619;10.130;-0.022;0.009;-0.037;49.03971;13.23125;12.7
20190405_174407;-0.316;-2.516;10.013;-0.033;-0.015;-0.037;49.03971;13.23125;12.7
20190405_174407;-0.342;-2.346;9.309;0.016;0.052;-0.034;49.03971;13.23125;12.7
20190405_174407;-0.524;-2.121;9.405;0.020;-0.053;-0.040;49.03971;13.23125;12.7
20190405_174408;1.346;-2.686;9.754;-0.014;0.014;-0.037;49.03968;13.23127;12.1
20190405_174408;0.783;-2.239;9.304;-0.025;0.023;-0.036;49.03968;13.23127;12.1
20190405_174408;0.153;-2.480;9.647;0.034;0.112;-0.035;49.03968;13.23127;12.1
20190405_174408;-0.572;-2.480;9.647;0.059;0.051;-0.026;49.03968;13.23127;12.1
20190405_174408;0.122;-3.290;9.431;0.066;-0.030;-0.035;49.03968;13.23127;12.1
20190405_174408;1.279;-2.418;10.516;0.055;-0.128;-0.022;49.03968;13.23127;12.1
20190405_174408;0.467;-2.203;9.381;0.027;-0.011;-0.028;49.03968;13.23127;12.1
20190405_174408;-0.266;-2.210;9.831;-0.002;0.089;-0.036;49.03968;13.23127;12.1
20190405_174408;-0.199;-2.303;9.218;0.006;0.029;-0.036;49.03968;13.23127;12.1
20190405_174409;1.015;-2.117;9.484;0.056;0.019;-0.036;49.03965;13.23129;10.8
20190405_174409;0.587;-2.279;9.984;0.070;0.092;-0.018;49.03965;13.23129;10.8
20190405_174409;0.218;-2.169;9.850;0.052;0.065;-0.054;49.03965;13.23129;10.8
20190405_174409;-0.876;-1.978;9.757;0.010;0.068;-0.048;49.03965;13.23129;10.8
20190405_174409;-0.005;-1.858;8.991;0.001;-0.034;-0.072;49.03965;13.23129;10.8
20190405_174409;0.594;-1.982;9.235;0.028;-0.143;-0.068;49.03965;13.23129;10.8
20190405_174409;0.608;-2.085;10.123;0.025;-0.045;-0.087;49.03965;13.23129;10.8
20190405_174409;0.721;-1.769;9.817;-0.008;0.072;-0.090;49.03965;13.23129;10.8
20190405_174409;0.192;-1.872;9.371;-0.002;0.064;-0.086;49.03963;13.23130;9.1
20190405_174410;-0.326;-1.513;9.524;0.025;0.009;-0.097;49.03963;13.23130;9.1
20190405_174410;-0.488;-1.566;9.611;0.046;0.030;-0.103;49.03963;13.23130;9.1
20190405_174410;0.074;-1.669;9.783;0.033;0.034;-0.089;49.03963;13.23130;9.1
20190405_174410;0.275;-1.590;9.998;0.010;0.048;-0.094;49.03963;13.23130;9.1
20190405_174410;-0.436;-1.470;9.742;0.011;0.105;-0.094;49.03963;13.23130;9.1
20190405_174410;-0.187;-1.396;9.807;0.020;0.026;-0.093;49.03963;13.23130;9.1
20190405_174410;0.081;-1.444;9.836;0.015;0.038;-0.090;49.03963;13.23130;9.1
20190405_174410;0.122;-1.573;9.733;0.003;-0.003;-0.084;49.03963;13.23130;9.1
20190405_174411;0.460;-1.470;9.520;0.011;-0.071;-0.084;49.03961;13.23131;7.6
20190405_174411;-0.062;-1.477;9.927;0.017;0.060;-0.089;49.03961;13.23131;7.6
20190405_174411;-0.010;-1.267;9.455;0.018;-0.026;-0.087;49.03961;13.23131;7.6
20190405_174411;-0.069;-1.235;9.831;0.017;0.043;-0.079;49.03961;13.23131;7.6
20190405_174411;-0.014;-1.216;10.054;0.004;-0.053;-0.078;49.03961;13.23131;7.6
20190405_174411;-0.101;-1.259;9.560;0.003;-0.028;-0.084;49.03961;13.23131;7.6
20190405_174411;-0.067;-1.358;9.654;0.003;0.072;-0.078;49.03961;13.23131;7.6
20190405_174411;0.187;-1.362;9.699;-0.007;-0.032;-0.078;49.03961;13.23131;7.6
20190405_174411;-0.084;-1.513;9.728;-0.002;0.045;-0.078;49.03960;13.23131;6.0
20190405_174412;-0.402;-1.420;9.438;0.006;0.097;-0.076;49.03960;13.23131;6.0
20190405_174412;0.472;-1.307;9.922;-0.005;-0.057;-0.070;49.03960;13.23131;6.0
20190405_174412;-0.215;-1.561;9.474;-0.004;0.051;-0.067;49.03960;13.23131;6.0
20190405_174412;0.115;-1.635;9.850;0.003;0.046;-0.065;49.03960;13.23131;6.0
20190405_174412;0.045;-1.702;9.620;0.003;-0.035;-0.061;49.03960;13.23131;6.0
20190405_174412;-0.378;-1.781;9.556;0.003;0.075;-0.056;49.03960;13.23131;6.0
20190405_174412;-0.180;-1.815;9.357;-0.004;-0.051;-0.051;49.03960;13.23131;6.0
20190405_174412;-0.189;-1.846;9.512;0.006;0.043;-0.050;49.03960;13.23131;6.0
20190405_174413;0.024;-1.882;9.773;0.003;0.059;-0.043;49.03958;13.23131;4.7
20190405_174413;-0.491;-2.028;9.599;0.001;0.086;-0.042;49.03958;13.23131;4.7
20190405_174413;-0.069;-1.915;9.455;-0.002;-0.062;-0.033;49.03958;13.23131;4.7
20190405_174413;-0.256;-1.882;9.474;-0.002;0.020;-0.028;49.03958;13.23131;4.7
20190405_174413;0.227;-1.829;9.931;0.004;0.060;-0.024;49.03958;13.23131;4.7
20190405_174413;0.141;-1.808;9.570;-0.002;-0.057;-0.015;49.03958;13.23131;4.7
20190405_174413;-0.512;-1.851;9.606;-0.003;0.018;-0.019;49.03958;13.23131;4.7
20190405_174413;0.127;-1.729;9.905;0.000;0.015;-0.007;49.03958;13.23131;4.7
20190405_174413;-0.539;-1.913;9.462;-0.000;0.033;-0.006;49.03958;13.23131;0.0
20190405_174414;0.065;-1.599;9.764;-0.003;-0.010;0.004;49.03958;13.23131;0.0
20190405_174414;0.165;-0.639;9.611;0.007;-0.100;0.001;49.03958;13.23131;0.0
20190405_174414;-0.498;-1.101;9.651;0.011;0.089;-0.003;49.03958;13.23131;0.0
20190405_174414;0.206;-1.267;9.840;-0.010;0.002;0.005;49.03958;13.23131;0.0
20190405_174414;-0.261;-1.216;9.790;-0.000;-0.020;-0.001;49.03958;13.23131;0.0
20190405_174414;-0.153;-0.998;9.738;0.007;0.097;-0.000;49.03958;13.23131;0.0
20190405_174414;0.239;-1.166;9.745;-0.006;-0.075;0.001;49.03958;13.23131;0.0
20190405_174414;-0.591;-1.212;9.716;0.000;0.022;-0.001;49.03958;13.23131;0.0
20190405_174415;0.105;-1.032;9.544;-0.003;-0.096;-0.001;49.03958;13.23131;0.0
20190405_174415;0.096;-1.080;9.570;0.000;-0.065;0.002;49.03958;13.23131;0.0
20190405_174415;-0.486;-1.219;9.738;-0.005;-0.014;-0.000;49.03958;13.23131;0.0
20190405_174415;0.419;-1.065;9.857;-0.001;0.022;0.005;49.03958;13.23131;0.0
20190405_174415;-0.460;-1.135;9.627;-0.007;-0.093;0.001;49.03958;13.23131;0.0
20190405_174415;-0.479;-1.125;9.445;0.006;0.075;0.001;49.03958;13.23131;0.0
20190405_174415;0.043;-1.087;9.644;-0.002;-0.043;0.001;49.03958;13.23131;0.0
20190405_174415;-0.354;-1.056;9.558;0.001;0.031;-0.001;49.03958;13.23131;0.0
20190405_174415;0.105;-1.061;9.953;-0.001;0.029;0.005;49.03958;13.23131;0.0
20190405_174416;-0.194;-1.144;9.443;-0.007;-0.029;-0.001;49.03958;13.23131;0.0
20190405_174416;0.321;-1.082;10.015;0.010;0.091;-0.000;49.03958;13.23131;0.0
20190405_174416;0.534;-0.998;9.738;-0.002;-0.110;0.004;49.03958;13.23131;0.0
20190405_174416;-0.812;-1.130;9.421;0.012;0.118;0.001;49.03958;13.23131;0.0
20190405_174416;0.366;-1.144;9.723;-0.007;-0.103;-0.004;49.03958;13.23131;0.0
20190405_174416;-0.802;-1.008;9.371;0.004;0.136;0.005;49.03958;13.23131;0.0
20190405_174416;0.651;-1.042;10.066;-0.002;-0.104;0.003;49.03958;13.23131;0.0
20190405_174416;-0.658;-1.183;9.242;0.003;0.038;0.001;49.03958;13.23131;0.0
20190405_174417;-0.510;-1.164;9.548;-0.004;-0.111;0.001;49.03958;13.23131;0.0
20190405_174417;0.752;-1.128;9.781;0.009;0.041;0.002;49.03958;13.23131;0.0
20190405_174417;-0.462;-1.010;9.398;0.012;0.099;-0.318;49.03958;13.23131;0.0
20190405_174417;-0.685;-1.092;9.924;0.023;0.059;-0.126;49.03958;13.23131;0.0
20190405_174417;-0.077;-1.080;9.661;0.060;0.109;-0.225;49.03958;13.23131;0.0
20190405_174417;-0.795;-1.027;9.850;-0.033;-0.105;0.082;49.03958;13.23131;0.0
20190405_174417;-0.385;-1.183;9.632;0.011;0.006;0.179;49.03958;13.23131;0.0
20190405_174417;-0.359;-0.977;9.680;-0.000;0.024;0.319;49.03958;13.23131;0.0
20190405_174417;-1.006;-1.032;9.817;-0.008;-0.031;0.001;49.03958;13.23131;0.0
20190405_174418;0.029;-1.097;9.886;-0.003;-0.038;0.006;49.03958;13.23131;0.0
20190405_174418;-0.421;-1.056;9.745;0.001;0.003;-0.003;49.03958;13.23131;0.0
20190405_174418;0.553;-1.140;9.757;0.002;-0.067;0.002;49.03958;13.23131;0.0
20190405_174418;-0.551;-1.080;9.534;-0.002;-0.038;-0.003;49.03958;13.23131;0.0
20190405_174418;0.402;-1.010;9.800;0.005;-0.005;0.003;49.03958;13.23131;0.0
20190405_174418;-0.900;-1.065;9.460;-0.007;-0.117;-0.003;49.03958;13.23131;0.0
20190405_174418;0.778;-1.044;10.063;-0.001;0.073;0.007;49.03958;13.23131;0.0
20190405_174418;-0.713;-1.154;9.915;-0.010;0.012;-0.002;49.03958;13.23131;0.0
20190405_174418;0.618;-1.097;9.541;0.005;-0.037;0.004;49.03958;13.23131;0.0
20190405_174419;-0.527;-1.149;9.637;-0.007;-0.047;-0.005;49.03958;13.23131;0.0
20190405_174419;0.481;-1.118;9.635;0.001;0.013;0.006;49.03958;13.23131;0.0
20190405_174419;0.235;-1.058;9.826;0.003;0.054;0.005;49.03958;13.23131;0.0
20190405_174419;-0.024;-1.216;9.685;-0.006;-0.020;-0.007;49.03958;13.23131;0.0
20190405_174419;0.721;-0.996;9.790;-0.004;-0.028;0.005;49.03958;13.23131;0.0
20190405_174419;-0.479;-1.116;9.761;0.008;0.062;-0.001;49.03958;13.23131;0.0
20190405_174419;-0.991;-1.116;9.539;-0.002;-0.042;0.004;49.03958;13.23131;0.0
20190405_174419;0.172;-1.161;9.697;-0.003;-0.070;0.002;49.03958;13.23131;0.0
20190405_174419;-0.927;-1.025;9.474;0.010;0.089;-0.000;49.03958;13.23131;0.0
20190405_174420;-0.385;-1.190;9.570;-0.007;-0.126;-0.002;49.03958;13.23131;0.0
20190405_174420;0.606;-1.065;9.833;0.004;0.096;0.006;49.03958;13.23131;0.0
20190405_174420;-0.867;-1.089;9.453;0.003;0.068;0.001;49.03958;13.23131;0.0
20190405_174420;0.338;-1.130;9.752;0.003;-0.044;0.005;49.03958;13.23131;0.0
20190405_174420;-0.362;-1.125;9.702;0.006;0.051;0.002;49.03958;13.23131;0.0
20190405_174420;-0.915;-1.082;9.366;-0.011;-0.069;-0.006;49.03958;13.23131;0.0
20190405_174420;-0.539;-1.051;9.599;0.006;0.119;0.007;49.03958;13.23131;0.0
20190405_174420;0.797;-1.106;9.769;-0.008;-0.100;-0.001;49.03958;13.23131;0.0
20190405_174420;-0.613;-1.049;9.563;0.001;0.092;0.004;49.03958;13.23131;0.0
20190405_174421;0.716;-1.075;9.833;-0.001;-0.040;-0.000;49.03958;13.23131;0.0
20190405_174421;0.905;-1.123;9.903;0.004;0.014;0.005;49.03958;13.23131;0.0
20190405_174421;-0.144;-1.070;9.754;0.004;0.046;0.001;49.03958;13.23131;0.0
20190405_174421;0.675;-1.101;9.936;-0.000;-0.032;-0.001;49.03958;13.23131;0.0
20190405_174421;-0.644;-1.006;9.460;-0.001;-0.005;-0.004;49.03958;13.23131;0.0
20190405_174421;0.654;-1.118;9.692;0.006;-0.010;0.004;49.03958;13.23131;0.0
20190405_174421;-0.577;-1.176;9.831;-0.008;-0.073;-0.005;49.03958;13.23131;0.0
20190405_174421;0.773;-1.008;9.781;0.004;0.070;0.004;49.03958;13.23131;0.0
20190405_174421;-0.977;-1.142;9.424;0.008;0.071;-0.003;49.03958;13.23131;0.0
20190405_174422;0.666;-1.046;9.723;0.000;-0.049;0.001;49.03958;13.23131;0.0
20190405_174422;0.682;-0.977;9.872;0.005;0.097;0.004;49.03958;13.23131;0.0
20190405_174422;-0.654;-1.032;9.520;0.007;0.065;-0.002;49.03958;13.23131;0.0
20190405_174422;0.376;-1.111;9.754;0.007;0.051;0.005;49.03958;13.23131;0.0
20190405_174422;-0.872;-1.027;9.414;0.000;-0.001;-0.003;49.03958;13.23131;0.0
20190405_174422;0.733;-1.075;9.769;0.003;0.097;0.007;49.03958;13.23131;0.0
20190405_174422;-0.608;-1.166;9.670;0.001;0.006;-0.004;49.03958;13.23131;0.0
20190405_174422;0.342;-1.044;10.008;0.002;0.082;0.007;49.03958;13.23131;0.0
20190405_174422;-0.948;-1.027;9.374;0.009;0.072;0.003;49.03958;13.23131;0.0
20190405_174423;-0.127;-1.161;9.757;0.004;-0.032;0.003;49.03958;13.23131;0.0
20190405_174423;-0.306;-1.116;9.754;0.005;0.033;-0.002;49.03958;13.23131;0.0
20190405_174423;-0.934;-1.075;9.426;0.001;-0.028;-0.001;49.03958;13.23131;0.0
20190405_174423;0.314;-1.130;9.709;0.000;-0.077;0.001;49.03958;13.23131;0.0
20190405_174423;-0.503;-1.065;9.682;-0.006;-0.031;-0.006;49.03958;13.23131;0.0
20190405_174423;0.395;-1.008;9.864;0.004;0.009;0.004;49.03958;13.23131;0.0
20190405_174423;-0.886;-1.039;9.369;-0.013;-0.123;-0.004;49.03958;13.23131;0.0
20190405_174423;-0.108;-1.049;9.754;0.001;0.057;0.006;49.03958;13.23131;0.0
20190405_174424;-0.484;-1.202;9.445;-0.005;-0.063;-0.004;49.03958;13.23131;0.0
20190405_174424;0.625;-1.022;9.936;0.001;0.081;0.005;49.03958;13.23131;0.0
20190405_174424;-0.895;-1.135;9.510;-0.010;-0.124;-0.003;49.03958;13.23131;0.0
20190405_174424;-0.421;-1.049;9.517;0.009;0.124;0.005;49.03958;13.23131;0.0
20190405_174424;-0.721;-1.200;9.745;-0.007;-0.104;-0.003;49.03958;13.23131;0.0
20190405_174424;-0.132;-1.106;9.838;0.005;0.010;-0.000;49.03958;13.23131;0.0
20190405_174424;0.670;-1.042;9.783;0.004;-0.048;0.003;49.03958;13.23131;0.0
20190405_174424;-0.010;-1.073;10.003;0.003;0.097;0.004;49.03958;13.23131;0.0
20190405_174424;0.642;-1.109;9.747;0.001;-0.045;0.001;49.03958;13.23131;0.0
20190405_174425;0.086;-1.094;9.939;0.006;0.065;0.006;49.03958;13.23131;0.0
20190405_174425;0.129;-1.238;9.757;-0.014;-0.117;-0.004;49.03958;13.23131;0.0
20190405_174425;0.735;-1.027;9.797;0.004;0.046;0.008;49.03958;13.23131;0.0
20190405_174425;-0.857;-1.101;9.333;-0.010;-0.093;-0.004;49.03958;13.23131;0.0
20190405_174425;0.742;-1.010;9.781;0.002;0.073;0.002;49.03958;13.23131;0.0
20190405_174425;-0.860;-1.147;9.508;-0.013;-0.136;-0.003;49.03958;13.23131;0.0
20190405_174425;-0.632;-1.065;9.611;0.004;0.099;0.004;49.03958;13.23131;0.0
20190405_174425;-0.510;-1.228;9.613;-0.005;-0.034;-0.005;49.03958;13.23131;0.0
20190405_174426;0.500;-1.097;9.730;0.004;0.012;0.003;49.03958;13.23131;0.0
20190405_174426;0.328;-1.159;9.745;0.006;0.086;-0.001;49.03958;13.23131;0.0
20190405_174426;-0.460;-1.317;9.568;-0.005;-0.086;-0.004;49.03958;13.23131;0.0
20190405_174426;-0.977;-1.276;9.386;0.012;0.055;0.001;49.03958;13.23131;0.0
20190405_174426;0.194;-1.056;9.649;-0.004;-0.137;-0.003;49.03958;13.23131;0.0
20190405_174426;-0.958;-0.804;9.247;-0.004;0.005;-0.005;49.03958;13.23131;0.0
20190405_174426;0.378;-0.742;10.030;-0.000;-0.043;0.001;49.03958;13.23131;0.0
20190405_174426;-0.876;-0.867;9.441;-0.016;-0.104;-0.009;49.03958;13.23131;0.0
20190405_174426;-0.072;-0.962;9.673;-0.001;0.063;-0.001;49.03958;13.23131;0.0
20190405_174427;0.359;-1.185;9.524;-0.006;-0.101;-0.009;49.03958;13.23131;0.0
20190405_174427;0.666;-0.970;9.697;0.001;0.039;-0.001;49.03958;13.23131;0.0
20190405_174427;-0.838;-1.125;9.316;-0.013;-0.100;-0.012;49.03958;13.23131;0.0
20190405_174427;-0.608;-1.063;9.242;-0.004;-0.031;-0.009;49.03958;13.23131;0.0
20190405_174427;0.081;-1.152;9.931;0.000;0.082;-0.002;49.03958;13.23131;0.0
20190405_174427;-0.211;-1.374;9.757;-0.010;-0.100;-0.009;49.03958;13.23131;0.0
20190405_174427;0.845;-1.183;9.766;0.003;0.089;0.001;49.03958;13.23131;0.0
20190405_174427;-0.170;-1.343;9.747;-0.010;-0.070;-0.008;49.03958;13.23131;0.0
20190405_174427;-0.045;-1.223;9.754;0.006;0.082;0.002;49.03958;13.23131;0.0
20190405_174428;-0.953;-1.171;9.393;-0.008;-0.138;-0.001;49.03958;13.23131;0.0
20190405_174428;0.582;-1.073;9.872;0.015;0.081;0.004;49.03958;13.23131;0.0
20190405_174428;0.666;-1.027;9.730;-0.004;-0.105;-0.002;49.03958;13.23131;0.0
20190405_174428;0.113;-1.068;9.805;0.001;0.007;0.001;49.03958;13.23131;0.0
20190405_174428;0.685;-1.099;9.764;0.002;-0.088;0.002;49.03958;13.23131;0.0
20190405_174428;-0.874;-0.991;9.230;0.007;0.103;0.003;49.03958;13.23131;0.0
20190405_174428;0.342;-1.147;9.697;0.001;-0.038;0.002;49.03958;13.23131;0.0
20190405_174428;-0.998;-1.135;9.551;0.002;-0.004;0.001;49.03958;13.23131;0.0
20190405_174429;0.579;-0.974;9.922;0.006;-0.093;0.005;49.03958;13.23131;0.0
20190405_174429;-0.302;-1.085;9.627;0.001;0.017;-0.002;49.03958;13.23131;0.0
20190405_174429;0.261;-1.142;9.773;0.001;-0.058;0.002;49.03958;13.23131;0.0
20190405_174429;-0.723;-1.154;9.723;-0.008;-0.083;-0.005;49.03958;13.23131;0.0
20190405_174429;1.065;-1.101;9.912;0.000;0.003;0.005;49.03958;13.23131;0.0
20190405_174429;-0.498;-1.228;9.462;-0.011;-0.101;-0.005;49.03958;13.23131;0.0
20190405_174429;0.338;-1.018;9.802;0.004;0.015;0.004;49.03958;13.23131;0.0
20190405_174429;-0.036;-1.144;9.630;-0.011;-0.123;-0.003;49.03958;13.23131;0.0
20190405_174430;-0.129;-1.027;9.642;0.001;0.083;0.005;49.03958;13.23131;0.0
20190405_174430;-1.106;-1.144;9.738;0.011;0.107;-0.005;49.03958;13.23131;0.0
20190405_174430;0.577;-1.063;10.001;0.003;0.033;0.003;49.03958;13.23131;0.0
20190405_174430;-0.493;-1.264;9.692;0.004;0.029;-0.001;49.03958;13.23131;0.0
20190405_174430;0.620;-1.111;9.738;0.006;0.031;0.007;49.03958;13.23131;0.0
20190405_174430;-0.453;-1.204;9.757;0.001;0.007;-0.003;49.03958;13.23131;0.0
20190405_174430;-0.134;-1.063;9.551;0.003;0.104;0.006;49.03958;13.23131;0.0
20190405_174430;-1.080;-1.080;9.374;0.012;0.126;0.005;49.03958;13.23131;0.0
20190405_174430;0.745;-1.092;9.757;0.000;-0.018;0.002;49.03958;13.23131;0.0
20190405_174431;0.084;-1.080;9.979;0.006;0.035;0.001;49.03958;13.23131;0.0
20190405_174431;-0.876;-1.104;9.237;-0.007;-0.125;-0.001;49.03958;13.23131;0.0
20190405_174431;0.757;-1.042;9.908;0.006;0.099;0.006;49.03958;13.23131;0.0
20190405_174431;-0.836;-1.097;9.383;-0.010;-0.103;-0.006;49.03958;13.23131;0.0
20190405_174431;0.189;-1.020;9.855;0.006;0.070;0.003;49.03958;13.23131;0.0
20190405_174431;0.172;-1.132;9.757;-0.007;-0.116;0.001;49.03958;13.23131;0.0
20190405_174431;-0.881;-1.135;9.108;0.001;0.007;-0.004;49.03958;13.23131;0.0
20190405_174431;0.374;-1.051;9.872;0.003;-0.001;0.004;49.03958;13.23131;0.0
20190405_174432;-0.287;-1.152;9.797;-0.012;-0.112;-0.004;49.03958;13.23131;0.0
20190405_174432;0.919;-1.142;9.912;-0.009;-0.084;0.001;49.03958;13.23131;0.0
20190405_174432;-0.766;-1.080;9.493;0.010;0.051;-0.002;49.03958;13.23131;0.0
20190405_174432;0.532;-1.073;9.819;-0.002;-0.059;0.002;49.03958;13.23131;0.0
20190405_174432;-0.163;-1.053;9.666;0.006;0.056;-0.003;49.03958;13.23131;0.0
20190405_174432;-0.771;-1.075;9.560;-0.004;-0.024;-0.003;49.03958;13.23131;0.0
20190405_174432;0.496;-1.109;9.975;0.006;0.071;0.001;49.03958;13.23131;0.0
20190405_174432;0.366;-1.051;9.699;-0.005;-0.120;0.002;49.03958;13.23131;0.0
20190405_174432;0.266;-1.070;10.197;0.001;0.052;0.005;49.03958;13.23131;0.0
20190405_174433;0.479;-1.099;9.694;-0.007;-0.090;-0.001;49.03958;13.23131;0.0
20190405_174433;0.431;-1.087;9.651;0.002;0.059;0.004;49.03958;13.23131;0.0
20190405_174433;-0.517;-1.233;9.680;-0.003;-0.009;-0.004;49.03958;13.23131;0.0
20190405_174433;0.342;-1.075;10.185;0.004;0.073;0.004;49.03958;13.23131;0.0
20190405_174433;-0.065;-1.142;9.620;-0.010;-0.053;-0.004;49.03958;13.23131;0.0
20190405_174433;-0.359;-1.058;9.527;0.008;0.062;0.002;49.03958;13.23131;0.0
20190405_174433;0.385;-1.018;9.687;-0.004;-0.102;0.001;49.03958;13.23131;0.0
20190405_174433;0.397;-1.077;9.987;0.003;0.093;0.003;49.03958;13.23131;0.0
20190405_174433;0.359;-1.130;9.690;-0.002;-0.098;0.002;49.03958;13.23131;0.0
20190405_174434;0.354;-1.046;9.984;0.001;0.102;0.004;49.03958;13.23131;0.0
20190405_174434;-0.230;-1.171;9.623;-0.008;-0.024;-0.003;49.03958;13.23131;0.0
20190405_174434;0.120;-1.068;9.879;0.001;0.003;0.003;49.03958;13.23131;0.0
20190405_174434;-0.069;-1.147;9.749;-0.010;-0.047;-0.003;49.03958;13.23131;0.0
20190405_174434;-0.211;-1.032;9.539;-0.001;0.077;0.004;49.03958;13.23131;0.0
20190405_174434;0.378;-1.132;9.754;-0.004;-0.112;0.001;49.03958;13.23131;0.0
20190405_174434;0.536;-1.032;9.948;0.002;0.098;0.002;49.03958;13.23131;0.0
20190405_174434;0.397;-1.089;9.884;0.002;-0.056;0.002;49.03958;13.23131;0.0
20190405_174435;-0.575;-1.240;9.647;0.009;0.100;-0.001;49.03958;13.23131;0.0
20190405_174435;0.359;-1.070;9.596;-0.007;-0.090;-0.001;49.03958;13.23131;0.0
20190405_174435;-0.656;-1.085;9.285;0.004;0.085;0.002;49.03958;13.23131;0.0
20190405_174435;0.474;-1.058;9.539;-0.001;-0.091;0.002;49.03958;13.23131;0.0
20190405_174435;-0.828;-1.132;9.412;0.007;0.108;0.002;49.03958;13.23131;0.0
20190405_174435;-0.299;-1.171;9.690;-0.008;-0.062;-0.000;49.03958;13.23131;0.0
20190405_174435;-0.034;-1.049;9.728;-0.002;0.063;0.003;49.03958;13.23131;0.0
20190405_174435;-0.783;-1.137;9.484;-0.007;-0.101;-0.001;49.03958;13.23131;0.0
20190405_174435;-0.223;-1.034;9.675;0.001;0.059;0.003;49.03958;13.23131;0.0
20190405_174436;0.036;-1.080;9.711;-0.001;-0.093;0.001;49.03958;13.23131;0.0
20190405_174436;0.448;-1.087;9.975;0.004;0.092;0.001;49.03958;13.23131;0.0
20190405_174436;-0.443;-1.176;9.594;-0.001;-0.098;0.003;49.03958;13.23131;0.0
20190405_174436;-0.424;-1.034;9.402;0.006;0.099;-0.001;49.03958;13.23131;0.0
20190405_174436;-0.244;-1.190;9.754;-0.004;-0.091;-0.001;49.03958;13.23131;0.0
20190405_174436;-0.955;-1.154;9.649;0.001;-0.012;-0.001;49.03958;13.23131;0.0
20190405_174436;-0.101;-1.042;9.740;0.004;0.067;0.005;49.03958;13.23131;0.0
20190405_174436;-0.888;-1.140;9.560;0.005;0.017;-0.000;49.03958;13.23131;0.0
20190405_174437;0.405;-1.080;9.948;0.006;-0.001;0.002;49.03958;13.23131;0.0
20190405_174437;-0.316;-1.173;9.651;-0.005;-0.051;-0.007;49.03958;13.23131;0.0
20190405_174437;0.630;-1.065;9.745;-0.010;-0.096;-0.006;49.03958;13.23131;0.0
20190405_174437;0.280;-1.101;9.783;0.009;0.103;0.007;49.03958;13.23131;0.0
20190405_174437;-1.056;-1.173;9.110;-0.001;-0.063;-0.007;49.03958;13.23131;0.0
20190405_174437;0.125;-0.967;9.994;-0.001;0.104;0.006;49.03958;13.23131;0.0
20190405_174437;0.237;-1.257;9.936;-0.015;-0.090;-0.006;49.03958;13.23131;0.0
20190405_174437;0.608;-0.939;9.601;0.014;0.109;0.005;49.03958;13.23131;0.0
20190405_174437;0.601;-1.144;9.795;-0.001;-0.125;-0.003;49.03958;13.23131;0.0
20190405_174438;-0.455;-1.087;9.749;0.003;0.085;0.005;49.03958;13.23131;0.0
20190405_174438;-0.615;-1.104;9.398;0.003;-0.034;-0.001;49.03958;13.23131;0.0
20190405_174438;0.785;-1.125;9.850;0.003;0.105;0.005;49.03958;13.23131;0.0
20190405_174438;-0.318;-1.166;9.735;-0.004;-0.047;-0.004;49.03958;13.23131;0.0
20190405_174438;-0.192;-1.034;9.733;0.004;0.034;0.007;49.03958;13.23131;0.0
20190405_174438;0.599;-1.176;9.881;-0.010;-0.092;-0.006;49.03958;13.23131;0.0
20190405_174438;-0.692;-1.070;9.453;0.008;0.151;0.007;49.03958;13.23131;0.0
20190405_174438;0.546;-1.152;9.886;-0.008;-0.086;-0.003;49.03958;13.23131;0.0
20190405_174439;-0.603;-1.099;9.532;0.001;0.089;0.005;49.03958;13.23131;0.0
20190405_174439;0.807;-1.123;9.831;0.000;-0.054;-0.002;49.03958;13.23131;0.0
20190405_174439;-0.977;-1.101;9.321;0.006;0.115;-0.001;49.03958;13.23131;0.0
20190405_174439;0.747;-1.075;10.176;0.005;0.012;0.006;49.03958;13.23131;0.0
20190405_174439;-0.709;-1.164;9.625;0.005;0.007;-0.003;49.03958;13.23131;0.0
20190405_174439;-0.196;-1.178;9.718;0.005;0.136;0.004;49.03958;13.23131;0.0
20190405_174439;0.227;-1.190;9.814;-0.010;-0.115;-0.006;49.03958;13.23131;0.0
20190405_174439;-0.668;-1.018;9.548;0.006;0.106;0.002;49.03958;13.23131;0.0
20190405_174439;-0.146;-1.214;9.694;-0.004;-0.056;-0.003;49.03958;13.23131;0.0
20190405_174440;0.900;-1.097;9.888;0.004;0.051;0.005;49.03958;13.23131;0.0
20190405_174440;-0.077;-1.094;9.771;0.006;0.060;0.001;49.03958;13.23131;0.0
20190405_174440;0.242;-1.209;9.757;-0.008;-0.098;-0.004;49.03958;13.23131;0.0
20190405_174440;-0.546;-1.046;9.582;0.009;0.161;0.006;49.03958;13.23131;0.0
20190405_174440;-0.857;-1.183;9.314;0.006;0.026;-0.001;49.03958;13.23131;0.0
20190405_174440;-0.029;-1.046;9.764;0.004;0.082;0.004;49.03958;13.23131;0.0
20190405_174440;0.055;-1.049;9.771;0.010;0.133;0.004;49.03958;13.23131;0.0
20190405_174440;0.828;-1.092;10.092;0.004;-0.004;0.004;49.03958;13.23131;0.0
20190405_174440;-0.986;-1.171;9.639;0.008;0.026;-0.001;49.03958;13.23131;0.0
20190405_174441;0.833;-1.104;9.718;0.006;0.130;0.005;49.03958;13.23131;0.0
20190405_174441;0.089;-1.216;9.757;-0.012;-0.133;-0.006;49.03958;13.23131;0.0
20190405_174441;-0.778;-0.977;9.520;0.007;0.086;0.001;49.03958;13.23131;0.0
20190405_174441;0.170;-1.250;9.606;0.001;-0.093;0.001;49.03958;13.23131;0.0
20190405_174441;-0.814;-0.838;9.872;-0.007;-0.129;-0.005;49.03958;13.23131;0.0
20190405_174441;0.318;-0.627;9.893;0.008;0.029;0.003;49.03958;13.23131;0.0
20190405_174441;-0.910;-0.634;9.534;-0.005;-0.096;-0.013;49.03958;13.23131;0.0
20190405_174441;-0.113;-0.345;9.678;0.004;0.057;-0.004;49.03958;13.23131;0.0
20190405_174442;0.129;-0.673;9.711;-0.011;-0.104;-0.015;49.03958;13.23131;0.0
20190405_174442;0.508;-0.536;10.226;0.002;0.006;-0.010;49.03958;13.23131;0.0
20190405_174442;-0.936;-0.354;9.359;-0.007;-0.129;-0.018;49.03958;13.23131;0.0
20190405_174442;0.103;-0.225;9.994;0.003;0.039;-0.007;49.03958;13.23131;0.0
20190405_174442;-1.204;-0.294;9.275;0.002;0.002;-0.015;49.03958;13.23131;0.0
20190405_174442;0.505;-0.223;10.118;0.004;0.019;-0.005;49.03958;13.23131;0.0
20190405_174442;-1.161;-0.342;9.421;-0.010;-0.169;-0.006;49.03958;13.23131;0.0
20190405_174442;-0.857;-0.158;9.424;0.008;0.139;0.011;49.03958;13.23131;0.0
20190405_174442;-0.067;-0.304;9.857;-0.008;-0.104;0.005;49.03958;13.23131;0.0
20190405_174443;-0.285;-0.318;9.917;0.009;0.115;0.008;49.03958;13.23131;0.9
20190405_174443;-0.129;-0.290;9.647;0.000;0.106;0.003;49.03958;13.23131;0.9
20190405_174443;0.141;-0.093;9.800;0.005;0.046;0.018;49.03958;13.23131;0.9
20190405_174443;-0.120;-0.012;9.335;0.021;-0.055;0.008;49.03958;13.23131;0.9
20190405_174443;0.120;0.132;9.596;0.017;-0.004;0.012;49.03958;13.23131;0.9
20190405_174443;-0.316;-0.256;10.099;0.006;0.003;0.020;49.03958;13.23131;0.9
20190405_174443;0.060;-0.306;10.030;0.018;-0.166;0.012;49.03958;13.23131;0.9
20190405_174443;0.500;-0.273;10.056;0.034;-0.150;0.006;49.03958;13.23131;0.9
20190405_174443;-0.180;0.069;9.544;0.044;-0.102;0.021;49.03956;13.23131;3.3
20190405_174444;-0.156;0.050;10.408;0.062;-0.016;0.027;49.03956;13.23131;3.3
20190405_174444;-0.182;0.045;9.548;0.020;-0.092;0.021;49.03956;13.23131;3.3
20190405_174444;0.457;0.175;9.108;0.013;-0.076;0.035;49.03956;13.23131;3.3
20190405_174444;0.369;0.359;9.031;0.024;-0.082;0.032;49.03956;13.23131;3.3
20190405_174444;0.261;0.548;10.142;0.070;-0.065;0.034;49.03956;13.23131;3.3
20190405_174444;0.352;0.407;9.898;0.037;-0.035;0.040;49.03956;13.23131;3.3
20190405_174444;0.464;0.666;9.012;0.028;-0.050;0.041;49.03956;13.23131;3.3
20190405_174444;0.445;0.342;10.008;0.021;-0.066;0.063;49.03956;13.23131;3.3
20190405_174445;0.110;-0.194;10.209;-0.018;-0.118;0.058;49.03954;13.23131;6.9
20190405_174445;0.019;-0.704;10.827;-0.016;-0.060;0.041;49.03954;13.23131;6.9
20190405_174445;0.769;-0.376;11.411;-0.020;-0.154;0.074;49.03954;13.23131;6.9
20190405_174445;1.166;-0.354;9.481;0.001;0.054;0.067;49.03954;13.23131;6.9
20190405_174445;0.388;-0.050;9.139;0.018;0.078;0.065;49.03954;13.23131;6.9
20190405_174445;0.108;-0.589;9.833;-0.013;0.001;0.079;49.03954;13.23131;6.9
20190405_174445;0.555;-0.515;9.125;-0.005;0.020;0.083;49.03954;13.23131;6.9
20190405_174445;0.876;-0.670;10.784;0.003;0.079;0.078;49.03954;13.23131;6.9
20190405_174445;0.450;-0.101;9.809;0.034;0.086;0.085;49.03954;13.23131;6.9
20190405_174446;-0.814;0.438;9.254;0.056;0.131;0.066;49.03952;13.23131;9.2
20190405_174446;0.160;0.115;10.236;0.034;-0.056;0.085;49.03952;13.23131;9.2
20190405_174446;-0.024;0.105;10.638;-0.068;0.061;0.112;49.03952;13.23131;9.2
20190405_174446;-0.453;0.180;9.517;-0.091;0.097;0.090;49.03952;13.23131;9.2
20190405_174446;-0.156;0.120;9.132;-0.036;0.095;0.097;49.03952;13.23131;9.2
20190405_174446;-0.283;0.079;9.951;0.003;0.054;0.104;49.03952;13.23131;9.2
20190405_174446;-0.491;0.421;10.171;-0.043;0.082;0.093;49.03952;13.23131;9.2
20190405_174446;-0.656;0.316;9.579;-0.006;0.071;0.093;49.03952;13.23131;9.2
20190405_174447;-0.522;0.895;8.864;-0.022;-0.001;0.080;49.03948;13.23131;11.9
20190405_174447;-0.378;0.536;9.153;-0.004;0.019;0.061;49.03948;13.23131;11.9
20190405_174447;-0.340;0.287;9.977;0.017;-0.059;0.057;49.03948;13.23131;11.9
20190405_174447;-0.436;0.663;10.726;-0.002;0.023;0.047;49.03948;13.23131;11.9
20190405_174447;-0.503;0.328;10.640;0.004;0.024;0.045;49.03948;13.23131;11.9
20190405_174447;-0.350;0.273;8.564;-0.020;0.027;0.040;49.03948;13.23131;11.9
20190405_174447;-0.788;-0.247;10.576;0.006;-0.035;0.042;49.03948;13.23131;11.9
20190405_174447;-0.079;0.122;9.692;-0.011;-0.010;0.041;49.03948;13.23131;11.9
20190405_174447;-0.632;0.460;10.099;0.011;0.072;0.043;49.03948;13.23131;11.9
20190405_174448;-0.843;-0.165;9.309;-0.008;0.046;0.041;49.03944;13.23132;15.5
20190405_174448;-0.532;-0.043;9.180;-0.016;-0.005;0.036;49.03944;13.23132;15.5
20190405_174448;-0.393;0.488;9.568;-0.008;0.024;0.042;49.03944;13.23132;15.5
20190405_174448;-0.819;0.163;10.362;0.022;0.049;0.045;49.03944;13.23132;15.5
20190405_174448;-0.541;0.395;10.458;0.007;-0.037;0.045;49.03944;13.23132;15.5
20190405_174448;-0.417;0.893;9.982;-0.007;0.018;0.046;49.03944;13.23132;15.5
20190405_174448;-0.306;0.745;9.426;-0.004;0.035;0.043;49.03944;13.23132;15.5
20190405_174448;-0.340;0.709;9.287;-0.008;0.006;0.029;49.03944;13.23132;15.5
20190405_174449;0.079;0.306;9.591;-0.000;-0.047;0.029;49.03939;13.23133;19.2
20190405_174449;-0.400;0.472;9.840;0.004;0.002;0.027;49.03939;13.23133;19.2
20190405_174449;-0.520;0.824;10.157;-0.017;-0.020;0.027;49.03939;13.23133;19.2
20190405_174449;-0.338;0.694;9.314;-0.011;0.046;0.029;49.03939;13.23133;19.2
20190405_174449;-0.608;0.338;10.379;-0.003;-0.063;0.026;49.03939;13.23133;19.2
20190405_174449;-0.151;0.168;9.505;0.022;-0.051;0.030;49.03939;13.23133;19.2
20190405_174449;-0.503;0.539;10.415;0.006;0.052;0.029;49.03939;13.23133;19.2
20190405_174449;-0.632;0.053;9.661;0.005;0.055;0.030;49.03939;13.23133;19.2
20190405_174449;-0.802;0.328;8.789;-0.017;0.035;0.031;49.03933;13.23136;23.6
20190405_174450;-0.690;0.055;9.757;0.008;-0.034;0.030;49.03933;13.23136;23.6
20190405_174450;-0.532;0.536;10.688;0.014;-0.035;0.033;49.03933;13.23136;23.6
20190405_174450;-0.390;0.259;10.839;0.011;-0.036;0.034;49.03933;13.23136;23.6
20190405_174450;-0.043;-0.029;8.830;0.004;0.016;0.034;49.03933;13.23136;23.6
20190405_174450;-0.546;0.472;10.561;0.021;-0.043;0.036;49.03933;13.23136;23.6
20190405_174450;-0.567;0.433;9.601;0.034;-0.028;0.043;49.03933;13.23136;23.6
20190405_174450;-0.783;0.575;10.710;-0.030;-0.036;0.030;49.03933;13.23136;23.6
20190405_174450;-0.670;-0.170;9.079;-0.013;0.082;0.034;49.03933;13.23136;23.6
20190405_174451;-1.669;0.290;10.781;0.012;0.001;0.040;49.03926;13.23139;27.8
20190405_174451;-0.055;0.045;8.868;-0.000;0.013;0.041;49.03926;13.23139;27.8
20190405_174451;-1.080;-0.127;9.888;0.016;0.023;0.034;49.03926;13.23139;27.8
20190405_174451;-1.173;0.385;10.516;-0.004;0.046;0.027;49.03926;13.23139;27.8
20190405_174451;-0.062;0.043;9.723;-0.013;0.025;0.031;49.03926;13.23139;27.8
20190405_174451;-0.833;-0.656;8.904;-0.000;-0.014;0.031;49.03926;13.23139;27.8
20190405_174451;-0.654;-0.330;9.098;0.019;0.105;0.038;49.03926;13.23139;27.8
20190405_174451;0.287;-0.225;9.278;0.002;-0.115;0.017;49.03926;13.23139;27.8
20190405_174451;-0.206;-0.584;9.307;0.018;0.026;0.016;49.03918;13.23144;31.6
20190405_174452;-1.314;0.397;10.135;0.006;0.048;0.001;49.03918;13.23144;31.6
20190405_174452;0.057;0.306;10.851;-0.018;-0.075;-0.001;49.03918;13.23144;31.6
20190405_174452;-0.141;-0.670;9.184;0.012;0.029;0.004;49.03918;13.23144;31.6
20190405_174452;0.230;0.304;10.149;0.024;0.076;0.010;49.03918;13.23144;31.6
20190405_174452;-0.230;0.144;10.640;0.006;-0.040;-0.001;49.03918;13.23144;31.6
20190405_174452;-0.247;-0.828;8.964;0.006;-0.046;0.007;49.03918;13.23144;31.6
20190405_174452;-0.776;0.555;10.080;-0.021;0.029;-0.004;49.03918;13.23144;31.6
20190405_174452;-0.266;0.397;10.731;0.029;-0.033;0.001;49.03918;13.23144;31.6
20190405_174453;-0.127;-0.122;9.182;0.033;0.079;0.005;49.03909;13.23149;35.2
20190405_174453;-0.141;-0.390;9.357;0.001;0.056;0.004;49.03909;13.23149;35.2
20190405_174453;-0.338;-0.374;9.536;-0.009;-0.026;-0.001;49.03909;13.23149;35.2
20190405_174453;0.038;-0.237;9.213;0.010;-0.038;-0.001;49.03909;13.23149;35.2
20190405_174453;0.565;-0.024;9.105;0.003;-0.020;0.002;49.03909;13.23149;35.2
20190405_174453;-0.819;-0.026;10.547;-0.002;-0.032;0.001;49.03909;13.23149;35.2
20190405_174453;-0.110;0.093;9.067;-0.009;-0.013;-0.006;49.03909;13.23149;35.2
20190405_174453;-0.182;0.029;10.334;0.011;-0.026;-0.001;49.03909;13.23149;35.2
20190405_174453;-0.127;0.225;9.740;-0.013;0.039;0.001;49.03900;13.23155;38.2
20190405_174454;-0.196;-0.268;9.508;0.013;0.036;0.001;49.03900;13.23155;38.2
20190405_174454;-0.385;-0.072;11.033;0.026;0.048;0.002;49.03900;13.23155;38.2
20190405_174454;0.029;-0.065;8.461;0.006;0.114;0.001;49.03900;13.23155;38.2
20190405_174454;-0.247;0.146;10.168;0.011;-0.019;0.001;49.03900;13.23155;38.2
20190405_174454;-0.587;-0.237;9.603;0.011;0.012;-0.003;49.03900;13.23155;38.2
20190405_174454;-0.156;0.034;8.823;-0.009;-0.065;-0.002;49.03900;13.23155;38.2
20190405_174454;0.012;-0.280;8.787;0.004;-0.036;0.002;49.03900;13.23155;38.2
20190405_174454;0.431;0.086;8.591;-0.011;-0.082;-0.004;49.03900;13.23155;38.2
20190405_174454;-0.244;0.045;10.664;0.012;-0.051;-0.002;49.03890;13.23161;41.3
20190405_174455;-0.256;0.105;11.074;-0.004;-0.047;0.001;49.03890;13.23161;41.3
20190405_174455;0.251;0.084;8.684;-0.035;-0.052;-0.007;49.03890;13.23161;41.3
20190405_174455;-0.881;0.414;9.620;0.029;0.095;0.001;49.03890;13.23161;41.3
20190405_174455;0.043;-0.057;9.139;0.006;0.034;-0.006;49.03890;13.23161;41.3
20190405_174455;-0.529;0.335;9.831;-0.018;0.039;-0.002;49.03890;13.23161;41.3
20190405_174455;-0.951;0.493;10.188;-0.027;-0.116;-0.008;49.03890;13.23161;41.3
20190405_174455;0.292;-0.103;9.414;-0.021;-0.100;-0.007;49.03890;13.23161;41.3
20190405_174455;-0.170;-0.026;10.212;0.003;0.014;-0.001;49.03890;13.23161;41.3
20190405_174456;-0.759;0.383;10.501;0.017;0.071;-0.001;49.03879;13.23167;44.7
20190405_174456;0.256;-0.290;9.235;0.020;-0.010;0.002;49.03879;13.23167;44.7
20190405_174456;-0.302;-0.261;8.871;-0.019;-0.039;-0.006;49.03879;13.23167;44.7
20190405_174456;0.136;-0.177;9.335;-0.013;0.048;-0.003;49.03879;13.23167;44.7
20190405_174456;-0.448;0.151;10.669;0.009;-0.018;-0.002;49.03879;13.23167;44.7
20190405_174456;-0.026;0.340;10.564;0.026;0.035;0.004;49.03879;13.23167;44.7
20190405_174456;-0.855;0.254;10.099;0.015;0.026;-0.002;49.03879;13.23167;44.7
20190405_174456;-0.603;-0.010;10.468;0.004;0.043;0.005;49.03879;13.23167;44.7
20190405_174456;1.233;0.184;8.947;0.009;-0.128;0.002;49.03879;13.23167;44.7
20190405_174456;-0.833;0.498;10.315;-0.013;0.126;-0.004;49.03868;13.23174;47.7
20190405_174457;0.057;0.541;9.982;-0.019;-0.099;-0.002;49.03868;13.23174;47.7
20190405_174457;0.567;0.158;10.073;-0.018;-0.088;0.001;49.03868;13.23174;47.7
20190405_174457;0.045;-0.244;9.721;-0.004;0.059;0.003;49.03868;13.23174;47.7
20190405_174457;0.627;0.007;10.037;-0.027;-0.131;-0.002;49.03868;13.23174;47.7
20190405_174457;0.347;-0.359;9.915;0.020;0.001;0.008;49.03868;13.23174;47.7
20190405_174457;1.513;-0.280;9.963;0.004;-0.040;0.010;49.03868;13.23174;47.7
20190405_174457;0.414;-0.412;10.382;0.010;0.084;-0.006;49.03868;13.23174;47.7
20190405_174457;-1.621;-0.623;8.617;-0.019;0.186;-0.003;49.03868;13.23174;47.7
20190405_174457;0.211;-0.520;8.665;0.004;0.009;-0.002;49.03856;13.23182;50.8
20190405_174458;-0.433;-0.242;10.355;-0.009;-0.099;0.003;49.03856;13.23182;50.8
20190405_174458;0.342;0.472;10.262;-0.016;-0.183;-0.005;49.03856;13.23182;50.8
20190405_174458;-0.891;-0.912;8.586;0.013;0.134;-0.003;49.03856;13.23182;50.8
20190405_174458;-0.855;0.259;9.266;-0.009;0.054;-0.004;49.03856;13.23182;50.8
20190405_174458;-0.060;-0.306;10.911;-0.002;0.056;-0.003;49.03856;13.23182;50.8
20190405_174458;-0.508;-0.546;10.755;0.004;0.239;0.001;49.03856;13.23182;50.8
20190405_174458;-0.795;-0.706;11.663;0.015;0.155;0.003;49.03856;13.23182;50.8
20190405_174458;1.719;-0.048;9.857;0.033;0.063;0.012;49.03856;13.23182;50.8
20190405_174459;0.730;0.084;9.472;-0.018;-0.149;-0.004;49.03843;13.23190;53.6
20190405_174459;-1.144;-0.661;8.979;-0.007;-0.053;-0.010;49.03843;13.23190;53.6
20190405_174459;-1.056;-0.170;10.310;0.010;0.060;0.001;49.03843;13.23190;53.6
20190405_174459;0.953;-0.125;9.101;-0.013;-0.090;0.002;49.03843;13.23190;53.6
20190405_174459;0.982;-0.062;9.661;0.007;0.076;0.006;49.03843;13.23190;53.6
20190405_174459;0.682;-0.505;9.034;-0.009;0.040;0.005;49.03843;13.23190;53.6
20190405_174459;0.160;0.048;10.288;-0.013;-0.037;-0.006;49.03843;13.23190;53.6
20190405_174459;0.354;0.146;8.308;0.034;0.137;-0.003;49.03843;13.23190;53.6
20190405_174459;0.402;0.048;10.741;-0.005;0.004;-0.002;49.03843;13.23190;53.6
20190405_174500;-0.634;-0.733;9.381;0.013;0.090;-0.007;49.03829;13.23197;56.5
20190405_174500;-0.031;-0.354;9.091;0.010;0.080;-0.002;49.03829;13.23197;56.5
20190405_174500;-0.283;-0.089;10.635;-0.017;-0.053;-0.001;49.03829;13.23197;56.5
20190405_174500;0.608;-0.575;9.017;0.015;-0.015;0.005;49.03829;13.23197;56.5
20190405_174500;0.402;0.036;9.721;-0.002;-0.139;-0.006;49.03829;13.23197;56.5
20190405_174500;0.043;-0.366;9.129;0.001;0.035;0.002;49.03829;13.23197;56.5
20190405_174500;0.376;-0.682;9.742;-0.008;-0.103;-0.006;49.03829;13.23197;56.5
20190405_174500;0.393;0.072;10.286;-0.008;0.050;0.005;49.03829;13.23197;56.5
20190405_174500;0.148;-0.912;9.340;-0.007;-0.032;-0.002;49.03815;13.23205;59.2
20190405_174501;0.062;-0.201;9.388;-0.014;0.015;0.002;49.03815;13.23205;59.2
20190405_174501;-0.302;-0.534;8.581;0.019;0.064;0.001;49.03815;13.23205;59.2
20190405_174501;-0.974;-0.704;8.550;0.001;-0.076;-0.005;49.03815;13.23205;59.2
20190405_174501;-0.266;-1.020;8.818;0.010;-0.062;-0.003;49.03815;13.23205;59.2
20190405_174501;-0.462;-0.821;9.204;0.002;0.017;0.004;49.03815;13.23205;59.2
20190405_174501;-0.354;-1.214;8.935;0.006;-0.004;0.002;49.03815;13.23205;59.2
20190405_174501;0.378;-1.104;9.350;0.003;-0.004;0.004;49.03815;13.23205;59.2
20190405_174501;-0.065;-0.661;9.570;-0.005;0.027;0.002;49.03815;13.23205;59.2
20190405_174502;-0.996;-0.486;8.112;0.001;0.099;0.003;49.03800;13.23213;60.6
20190405_174502;0.759;-0.529;10.638;-0.006;-0.129;-0.001;49.03800;13.23213;60.6
20190405_174502;0.369;-0.826;9.048;-0.005;-0.030;-0.000;49.03800;13.23213;60.6
20190405_174502;-0.263;-1.216;9.278;0.001;0.071;0.007;49.03800;13.23213;60.6
20190405_174502;-0.144;-0.524;10.013;-0.000;-0.060;0.005;49.03800;13.23213;60.6
20190405_174502;0.467;-0.563;10.604;-0.002;-0.007;-0.000;49.03800;13.23213;60.6
20190405_174502;0.374;-0.651;9.158;-0.004;-0.003;0.002;49.03800;13.23213;60.6
20190405_174502;0.294;-0.433;8.921;-0.004;0.054;0.005;49.03800;13.23213;60.6
20190405_174502;0.352;-0.625;10.164;-0.007;-0.046;0.004;49.03785;13.23222;62.8
20190405_174503;-0.232;-0.144;9.965;-0.006;0.024;0.004;49.03785;13.23222;62.8
20190405_174503;-0.034;-0.496;9.790;0.004;0.075;0.002;49.03785;13.23222;62.8
20190405_174503;0.572;-0.680;9.347;-0.004;-0.017;-0.000;49.03785;13.23222;62.8
20190405_174503;0.357;-0.876;9.757;0.007;-0.032;0.005;49.03785;13.23222;62.8
20190405_174503;-0.038;-0.321;8.830;-0.011;-0.012;0.001;49.03785;13.23222;62.8
20190405_174503;0.251;-0.694;9.177;0.003;-0.033;0.001;49.03785;13.23222;62.8
20190405_174503;-0.237;-0.977;9.316;-0.012;0.041;-0.001;49.03785;13.23222;62.8
20190405_174503;-0.194;-0.565;10.310;-0.001;0.024;-0.000;49.03785;13.23222;62.8
20190405_174504;0.371;-1.142;9.666;-0.021;-0.012;0.002;49.03770;13.23231;65.7
20190405_174504;-0.460;-0.385;8.619;0.013;0.045;0.004;49.03770;13.23231;65.7
20190405_174504;0.077;-0.594;10.635;0.007;-0.015;0.005;49.03770;13.23231;65.7
20190405_174504;-0.184;-0.575;10.152;-0.009;-0.059;-0.001;49.03770;13.23231;65.7
20190405_174504;0.651;-0.417;8.643;-0.008;0.057;-0.002;49.03770;13.23231;65.7
20190405_174504;0.069;-0.637;9.254;0.011;-0.081;0.005;49.03770;13.23231;65.7
20190405_174504;-0.098;-0.872;10.542;0.008;0.053;0.004;49.03770;13.23231;65.7
20190405_174504;-0.029;-0.304;9.977;-0.003;0.065;0.001;49.03770;13.23231;65.7
20190405_174504;-0.517;-0.603;9.314;0.016;-0.016;0.005;49.03770;13.23231;65.7
20190405_174505;0.623;-1.073;9.752;-0.002;0.029;0.003;49.03754;13.23240;67.0
20190405_174505;-0.127;-0.745;9.649;0.027;0.023;0.003;49.03754;13.23240;67.0
20190405_174505;0.347;-1.123;10.619;0.004;0.034;0.005;49.03754;13.23240;67.0
20190405_174505;-0.026;-1.259;9.742;-0.028;-0.036;0.004;49.03754;13.23240;67.0
20190405_174505;0.285;-1.190;9.828;-0.007;0.075;0.004;49.03754;13.23240;67.0
20190405_174505;-0.208;-1.219;9.005;-0.016;-0.072;0.004;49.03754;13.23240;67.0
20190405_174505;0.572;-1.283;9.747;-0.001;0.029;0.004;49.03754;13.23240;67.0
20190405_174505;0.306;-0.781;9.105;0.015;0.097;-0.000;49.03754;13.23240;67.0
20190405_174505;0.261;-0.670;10.044;0.009;-0.008;0.005;49.03738;13.23249;67.2
20190405_174506;0.122;-0.682;9.654;0.014;-0.021;0.007;49.03738;13.23249;67.2
20190405_174506;-0.627;-1.099;9.838;-0.007;-0.027;-0.001;49.03738;13.23249;67.2
20190405_174506;0.927;-0.742;9.618;-0.016;0.044;0.007;49.03738;13.23249;67.2
20190405_174506;0.496;-0.737;9.558;0.003;-0.061;-0.004;49.03738;13.23249;67.2
20190405_174506;0.165;-0.713;9.469;0.017;0.026;0.001;49.03738;13.23249;67.2
20190405_174506;0.314;-0.680;9.699;0.012;-0.007;-0.002;49.03738;13.23249;67.2
20190405_174506;-0.211;-0.809;9.445;0.004;0.020;0.001;49.03738;13.23249;67.2
20190405_174506;0.120;-1.022;10.310;0.006;0.015;-0.001;49.03738;13.23249;67.2
20190405_174507;-0.637;-1.195;9.122;0.009;-0.060;-0.003;49.03722;13.23258;67.2
20190405_174507;0.450;-0.716;9.402;-0.011;-0.035;-0.006;49.03722;13.23258;67.2
20190405_174507;-0.639;-1.176;10.451;-0.001;0.064;-0.004;49.03722;13.23258;67.2
20190405_174507;0.429;-1.166;9.670;0.001;0.001;0.002;49.03722;13.23258;67.2
20190405_174507;-0.283;-1.068;8.938;-0.003;-0.035;-0.002;49.03722;13.23258;67.2
20190405_174507;-0.036;-1.247;9.311;-0.002;0.043;0.003;49.03722;13.23258;67.2
20190405_174507;0.043;-1.176;9.319;0.004;0.048;0.001;49.03722;13.23258;67.2
20190405_174507;-0.251;-1.099;9.314;-0.008;-0.003;-0.004;49.03722;13.23258;67.2
20190405_174507;0.347;-1.269;9.376;-0.010;-0.093;-0.000;49.03706;13.23267;67.7
20190405_174508;-0.551;-1.025;9.718;0.001;0.023;-0.001;49.03706;13.23267;67.7
20190405_174508;0.187;-1.082;9.704;-0.009;-0.038;0.001;49.03706;13.23267;67.7
20190405_174508;-0.546;-1.142;9.805;0.004;0.043;-0.001;49.03706;13.23267;67.7
20190405_174508;0.484;-1.171;10.008;-0.010;0.095;-0.001;49.03706;13.23267;67.7
20190405_174508;0.376;-1.082;9.975;-0.003;-0.060;-0.007;49.03706;13.23267;67.7
20190405_174508;0.393;-1.149;9.915;0.013;-0.008;-0.007;49.03706;13.23267;67.7
20190405_174508;0.199;-1.152;9.582;0.007;0.013;-0.011;49.03706;13.23267;67.7
20190405_174508;-0.287;-1.092;9.457;-0.006;-0.029;-0.009;49.03706;13.23267;67.7
20190405_174509;-0.620;-1.046;8.830;0.005;0.101;-0.008;49.03690;13.23276;66.9
20190405_174509;-0.716;-1.233;9.117;0.005;-0.078;-0.017;49.03690;13.23276;66.9
20190405_174509;-0.069;-1.089;10.118;0.008;0.053;-0.010;49.03690;13.23276;66.9
20190405_174509;0.163;-1.130;9.764;0.007;0.043;-0.014;49.03690;13.23276;66.9
20190405_174509;1.085;-1.053;9.232;0.001;0.009;-0.013;49.03690;13.23276;66.9
20190405_174509;-0.180;-1.573;10.657;0.006;0.098;-0.002;49.03690;13.23276;66.9
20190405_174509;-0.215;-1.291;9.649;0.012;-0.057;-0.013;49.03690;13.23276;66.9
20190405_174509;0.292;-1.231;9.831;0.020;-0.067;-0.012;49.03690;13.23276;66.9
20190405_174509;0.484;-1.456;9.548;-0.007;-0.083;-0.015;49.03690;13.23276;66.9
20190405_174510;-0.778;-1.240;9.137;0.015;0.043;-0.015;49.03675;13.23285;66.1
20190405_174510;0.553;-1.152;9.941;0.023;-0.044;-0.010;49.03675;13.23285;66.1
20190405_174510;0.620;-1.032;9.778;0.010;-0.159;-0.016;49.03675;13.23285;66.1
20190405_174510;-0.043;-1.267;10.417;0.008;0.029;-0.013;49.03675;13.23285;66.1
20190405_174510;1.087;-1.022;9.508;0.001;-0.058;-0.014;49.03675;13.23285;66.1
20190405_174510;-0.941;-1.367;9.647;0.001;0.142;-0.015;49.03675;13.23285;66.1
20190405_174510;-0.089;-1.188;9.984;0.014;-0.072;-0.014;49.03675;13.23285;66.1
20190405_174510;0.419;-1.456;9.706;0.015;-0.130;-0.019;49.03675;13.23285;66.1
20190405_174510;-0.189;-0.931;9.824;0.007;0.004;-0.019;49.03659;13.23293;65.4
20190405_174511;0.168;-1.176;9.757;0.001;0.055;-0.015;49.03659;13.23293;65.4
20190405_174511;0.268;-1.293;8.801;-0.004;-0.057;-0.016;49.03659;13.23293;65.4
20190405_174511;0.431;-1.018;9.448;-0.000;0.037;-0.017;49.03659;13.23293;65.4
20190405_174511;0.936;-1.393;9.510;-0.011;-0.087;-0.014;49.03659;13.23293;65.4
20190405_174511;0.129;-1.530;9.936;-0.016;-0.098;-0.010;49.03659;13.23293;65.4
20190405_174511;0.022;-1.642;9.412;-0.000;0.046;-0.008;49.03659;13.23293;65.4
20190405_174511;-0.215;-1.961;9.951;-0.016;0.049;-0.009;49.03659;13.23293;65.4
20190405_174511;0.505;-1.882;9.429;-0.021;-0.002;-0.003;49.03659;13.23293;65.4
20190405_174511;-0.045;-2.430;8.993;-0.029;0.006;-0.007;49.03644;13.23301;63.5
20190405_174512;-0.177;-1.690;9.342;-0.015;0.046;-0.003;49.03644;13.23301;63.5
20190405_174512;0.007;-2.610;9.283;-0.001;0.062;-0.009;49.03644;13.23301;63.5
20190405_174512;-0.196;-2.265;9.558;0.011;-0.006;-0.007;49.03644;13.23301;63.5
20190405_174512;-0.175;-2.382;9.836;0.013;0.024;-0.010;49.03644;13.23301;63.5
20190405_174512;-0.117;-2.224;9.589;0.023;-0.049;-0.004;49.03644;13.23301;63.5
20190405_174512;0.010;-2.243;9.079;0.000;-0.019;0.001;49.03644;13.23301;63.5
20190405_174512;-0.302;-3.170;8.605;-0.029;0.046;-0.001;49.03644;13.23301;63.5
20190405_174512;-0.057;-2.548;10.264;-0.014;-0.076;0.006;49.03644;13.23301;63.5
20190405_174512;0.309;-2.832;9.352;0.022;0.031;0.004;49.03629;13.23308;58.9
20190405_174513;-0.237;-2.447;10.082;0.006;-0.093;-0.000;49.03629;13.23308;58.9
20190405_174513;-0.060;-2.758;9.077;-0.029;-0.026;0.001;49.03629;13.23308;58.9
20190405_174513;0.316;-2.330;9.759;-0.033;-0.049;-0.003;49.03629;13.23308;58.9
20190405_174513;-0.275;-2.674;9.553;-0.001;0.065;-0.007;49.03629;13.23308;58.9
20190405_174513;0.201;-3.022;10.635;0.006;-0.057;-0.000;49.03629;13.23308;58.9
20190405_174513;-0.089;-3.081;9.319;0.009;0.010;0.003;49.03629;13.23308;58.9
20190405_174513;-0.211;-2.330;9.711;-0.005;0.042;-0.004;49.03629;13.23308;58.9
20190405_174513;0.089;-2.868;9.421;0.001;0.020;-0.005;49.03629;13.23308;58.9
20190405_174513;0.146;-2.986;9.711;0.000;-0.011;-0.004;49.03616;13.23315;52.9
20190405_174514;0.376;-3.136;9.946;0.007;0.048;-0.001;49.03616;13.23315;52.9
20190405_174514;-0.393;-3.443;10.377;0.005;-0.037;-0.000;49.03616;13.23315;52.9
20190405_174514;-0.053;-2.943;9.735;0.006;-0.010;-0.000;49.03616;13.23315;52.9
20190405_174514;-0.057;-3.180;9.565;-0.007;-0.001;-0.008;49.03616;13.23315;52.9
20190405_174514;-0.060;-3.235;8.962;0.003;-0.003;-0.011;49.03616;13.23315;52.9
20190405_174514;0.555;-2.823;9.596;0.000;-0.055;-0.017;49.03616;13.23315;52.9
20190405_174514;0.520;-2.844;9.062;0.003;-0.018;-0.027;49.03616;13.23315;52.9
20190405_174514;0.371;-3.287;9.556;-0.014;-0.026;-0.039;49.03616;13.23315;52.9
20190405_174515;0.299;-3.412;9.630;0.003;0.042;-0.041;49.03605;13.23321;45.4
20190405_174515;-0.108;-3.412;9.575;0.010;-0.067;-0.043;49.03605;13.23321;45.4
20190405_174515;0.649;-3.802;9.125;0.008;-0.049;-0.048;49.03605;13.23321;45.4
20190405_174515;0.828;-3.227;9.560;0.008;0.076;-0.038;49.03605;13.23321;45.4
20190405_174515;0.309;-3.139;9.517;-0.002;0.036;-0.049;49.03605;13.23321;45.4
20190405_174515;0.280;-2.842;9.036;-0.002;-0.007;-0.040;49.03605;13.23321;45.4
20190405_174515;0.797;-3.029;9.405;0.008;0.018;-0.042;49.03605;13.23321;45.4
20190405_174515;0.591;-3.474;9.465;-0.010;0.004;-0.045;49.03605;13.23321;45.4
20190405_174515;0.285;-3.017;9.872;-0.007;0.010;-0.036;49.03605;13.23321;45.4
20190405_174516;0.134;-3.376;9.347;-0.026;0.003;-0.040;49.03595;13.23326;38.0
20190405_174516;0.093;-2.734;9.666;0.011;0.021;-0.039;49.03595;13.23326;38.0
20190405_174516;0.409;-2.483;9.491;0.028;0.013;-0.042;49.03595;13.23326;38.0
20190405_174516;-0.239;-2.612;9.371;0.021;0.030;-0.042;49.03595;13.23326;38.0
20190405_174516;0.132;-2.545;9.026;-0.002;-0.049;-0.047;49.03595;13.23326;38.0
20190405_174516;1.413;-3.096;9.541;-0.010;0.023;-0.054;49.03595;13.23326;38.0
20190405_174516;1.168;-2.275;9.826;-0.002;-0.001;-0.082;49.03595;13.23326;38.0
20190405_174516;1.188;-2.593;9.326;-0.007;-0.016;-0.105;49.03595;13.23326;38.0
20190405_174516;1.353;-2.516;9.627;-0.003;-0.034;-0.117;49.03595;13.23326;38.0
20190405_174517;1.551;-2.497;9.261;0.005;-0.023;-0.133;49.03586;13.23327;32.2
20190405_174517;2.035;-2.217;9.017;-0.018;-0.023;-0.157;49.03586;13.23327;32.2
20190405_174517;1.384;-2.775;9.556;-0.022;0.082;-0.167;49.03586;13.23327;32.2
20190405_174517;2.617;-2.344;9.421;-0.051;-0.075;-0.182;49.03586;13.23327;32.2
20190405_174517;2.375;-2.368;9.572;-0.009;0.056;-0.189;49.03586;13.23327;32.2
20190405_174517;1.693;-2.363;9.558;0.027;-0.039;-0.216;49.03586;13.23327;32.2
20190405_174517;2.859;-2.485;9.211;-0.009;-0.091;-0.221;49.03586;13.23327;32.2
20190405_174517;2.167;-2.665;9.757;-0.029;-0.035;-0.244;49.03586;13.23327;32.2
20190405_174517;2.749;-2.588;9.316;-0.055;0.043;-0.257;49.03578;13.23328;28.0
20190405_174518;2.258;-2.040;9.690;-0.025;0.061;-0.268;49.03578;13.23328;28.0
20190405_174518;2.725;-1.870;9.503;-0.019;0.027;-0.286;49.03578;13.23328;28.0
20190405_174518;2.466;-1.650;9.553;-0.010;0.028;-0.306;49.03578;13.23328;28.0
20190405_174518;2.799;-1.209;9.460;-0.013;0.018;-0.317;49.03578;13.23328;28.0
20190405_174518;2.967;-1.276;9.577;0.001;0.032;-0.320;49.03578;13.23328;28.0
20190405_174518;2.634;-1.403;9.568;0.013;0.046;-0.331;49.03578;13.23328;28.0
20190405_174518;2.854;-1.360;9.680;-0.007;0.007;-0.390;49.03578;13.23328;28.0
20190405_174518;2.746;-1.367;9.740;0.002;0.040;-0.339;49.03578;13.23328;28.0
20190405_174519;3.031;-1.226;9.390;0.001;0.054;-0.346;49.03572;13.23327;25.0
20190405_174519;2.880;-1.262;9.412;-0.000;0.068;-0.348;49.03572;13.23327;25.0
20190405_174519;2.785;-1.240;9.757;0.003;0.067;-0.348;49.03572;13.23327;25.0
20190405_174519;2.785;-1.379;9.591;-0.006;0.029;-0.354;49.03572;13.23327;25.0
20190405_174519;2.911;-1.238;9.553;-0.022;0.040;-0.345;49.03572;13.23327;25.0
20190405_174519;3.017;-1.449;9.570;-0.019;0.070;-0.348;49.03572;13.23327;25.0
20190405_174519;2.773;-1.307;9.869;0.001;0.040;-0.354;49.03572;13.23327;25.0
20190405_174519;2.950;-1.348;9.496;0.020;0.019;-0.349;49.03572;13.23327;25.0
20190405_174519;3.275;-1.274;9.656;0.029;0.007;-0.357;49.03566;13.23324;26.1
20190405_174520;2.571;-0.946;9.891;0.036;0.041;-0.346;49.03566;13.23324;26.1
20190405_174520;2.890;-1.197;9.714;-0.018;0.057;-0.351;49.03566;13.23324;26.1
20190405_174520;2.746;-1.233;9.589;-0.046;0.051;-0.337;49.03566;13.23324;26.1
20190405_174520;2.504;-1.044;9.872;-0.033;0.063;-0.321;49.03566;13.23324;26.1
20190405_174520;2.370;-0.759;9.295;-0.013;0.081;-0.307;49.03566;13.23324;26.1
20190405_174520;1.616;-0.955;9.582;0.028;0.052;-0.295;49.03566;13.23324;26.1
20190405_174520;2.315;-0.656;9.733;-0.009;0.060;-0.285;49.03566;13.23324;26.1
20190405_174520;2.358;-0.522;9.828;0.014;0.017;-0.288;49.03566;13.23324;26.1
20190405_174521;2.303;-0.390;9.546;0.026;0.039;-0.281;49.03561;13.23317;26.1
20190405_174521;2.397;-0.548;9.939;-0.010;0.042;-0.290;49.03561;13.23317;26.1
20190405_174521;2.196;-0.285;9.364;-0.005;0.029;-0.286;49.03561;13.23317;26.1
20190405_174521;2.117;-0.330;9.778;0.001;0.042;-0.287;49.03561;13.23317;26.1
20190405_174521;2.270;-0.369;9.354;-0.006;0.049;-0.276;49.03561;13.23317;26.1
20190405_174521;1.889;-0.074;9.577;0.015;0.040;-0.284;49.03561;13.23317;26.1
20190405_174521;2.227;-0.273;9.843;0.010;0.056;-0.280;49.03561;13.23317;26.1
20190405_174521;1.963;-0.110;9.579;0.025;0.067;-0.268;49.03561;13.23317;26.1
20190405_174521;1.868;-0.371;9.979;0.004;0.091;-0.255;49.03561;13.23317;26.1
20190405_174522;1.535;-0.053;9.697;0.020;0.056;-0.236;49.03559;13.23308;27.8
20190405_174522;0.912;0.290;9.972;-0.013;0.023;-0.214;49.03559;13.23308;27.8
20190405_174522;1.353;0.144;10.147;0.002;0.006;-0.189;49.03559;13.23308;27.8
20190405_174522;1.166;0.290;9.615;0.032;-0.011;-0.178;49.03559;13.23308;27.8
20190405_174522;0.764;0.328;9.594;0.003;0.016;-0.156;49.03559;13.23308;27.8
20190405_174522;0.917;0.045;9.570;-0.035;-0.005;-0.141;49.03559;13.23308;27.8
20190405_174522;1.257;0.086;10.142;-0.047;-0.013;-0.134;49.03559;13.23308;27.8
20190405_174522;1.480;0.060;9.699;-0.002;-0.009;-0.123;49.03559;13.23308;27.8
20190405_174522;0.886;0.005;9.113;0.014;0.011;-0.118;49.03559;13.23308;27.8
20190405_174523;1.240;0.342;9.342;-0.008;0.008;-0.111;49.03557;13.23297;31.4
20190405_174523;0.749;0.010;9.749;-0.006;0.016;-0.106;49.03557;13.23297;31.4
20190405_174523;0.927;-0.160;9.821;-0.020;0.023;-0.100;49.03557;13.23297;31.4
20190405_174523;0.898;-0.273;9.639;-0.014;0.007;-0.095;49.03557;13.23297;31.4
20190405_174523;0.828;-0.029;9.757;0.012;0.012;-0.092;49.03557;13.23297;31.4
20190405_174523;1.006;0.000;9.558;-0.004;0.031;-0.081;49.03557;13.23297;31.4
20190405_174523;0.824;-0.060;9.797;0.006;0.037;-0.075;49.03557;13.23297;31.4
20190405_174523;-0.026;0.491;9.948;-0.001;0.073;-0.073;49.03557;13.23297;31.4
20190405_174523;0.656;-0.220;10.185;0.045;0.018;-0.078;49.03556;13.23285;35.0
20190405_174524;0.934;-0.469;10.365;0.023;0.041;-0.075;49.03556;13.23285;35.0
20190405_174524;0.565;0.019;9.828;0.015;-0.124;-0.081;49.03556;13.23285;35.0
20190405_174524;1.231;0.045;9.896;-0.017;-0.032;-0.087;49.03556;13.23285;35.0
20190405_174524;0.697;-0.105;9.330;-0.032;-0.013;-0.078;49.03556;13.23285;35.0
20190405_174524;0.548;0.010;9.465;-0.017;0.036;-0.069;49.03556;13.23285;35.0
20190405_174524;0.601;0.079;9.809;0.026;0.015;-0.066;49.03556;13.23285;35.0
20190405_174524;0.400;0.060;10.135;0.020;0.028;-0.069;49.03556;13.23285;35.0
20190405_174524;0.476;0.247;9.771;-0.007;-0.019;-0.064;49.03556;13.23285;35.0
20190405_174525;0.555;0.254;8.804;-0.018;0.041;-0.061;49.03557;13.23271;38.2
20190405_174525;0.534;-0.378;9.613;-0.010;-0.041;-0.053;49.03557;13.23271;38.2
20190405_174525;0.362;0.022;9.065;-0.002;0.010;-0.047;49.03557;13.23271;38.2
20190405_174525;-0.012;-0.433;9.742;0.012;0.027;-0.048;49.03557;13.23271;38.2
20190405_174525;0.500;-0.263;9.199;-0.015;0.043;-0.053;49.03557;13.23271;38.2
20190405_174525;0.711;-0.024;9.919;-0.014;0.049;-0.048;49.03557;13.23271;38.2
20190405_174525;0.587;-0.385;9.991;-0.001;0.000;-0.048;49.03557;13.23271;38.2
20190405_174525;0.407;-0.168;9.876;-0.001;-0.010;-0.047;49.03557;13.23271;38.2
20190405_174525;0.309;-0.206;10.200;-0.008;-0.024;-0.048;49.03558;13.23256;41.3
20190405_174526;0.196;-0.407;9.864;-0.003;0.018;-0.050;49.03558;13.23256;41.3
20190405_174526;0.474;-0.409;9.644;0.009;0.042;-0.051;49.03558;13.23256;41.3
20190405_174526;0.546;-0.311;9.606;-0.010;0.011;-0.049;49.03558;13.23256;41.3
20190405_174526;0.584;-0.493;9.781;-0.002;0.046;-0.053;49.03558;13.23256;41.3
20190405_174526;0.831;-0.184;10.458;-0.011;-0.098;-0.050;49.03558;13.23256;41.3
20190405_174526;1.566;-0.239;9.726;0.019;-0.145;-0.050;49.03558;13.23256;41.3
20190405_174526;1.128;-0.591;10.693;0.018;-0.065;-0.054;49.03558;13.23256;41.3
20190405_174526;0.781;-0.208;10.324;-0.018;-0.092;-0.057;49.03558;13.23256;41.3
20190405_174527;0.448;-0.433;9.821;-0.008;-0.144;-0.053;49.03560;13.23240;42.9
