Timestamp;Accel_x;Accel_y;Accel_z;Gyro_x;Gyro_y;Gyro_z;Light;Magnetic_x;Magnetic_y;Magnetic_z;Pressure;Proximity;Latitude;Longitude;Elevation;Speed
20181213_154327;0.227;8.327;4.765;0.118;0.080;0.110;148.0;57.800;-34.800;-110.500;976.5;8.0;48.93218;12.62225;376.9;65.1
20181213_154327;0.340;9.591;4.700;0.040;-0.038;-0.028;149.0;57.600;-34.800;-110.600;976.5;8.0;48.93218;12.62225;376.9;65.1
20181213_154327;1.056;9.235;4.295;-0.035;0.076;-0.016;148.0;57.600;-34.800;-110.700;976.5;8.0;48.93218;12.62225;376.9;65.1
20181213_154327;-0.347;9.630;4.214;0.112;0.015;-0.047;146.0;57.400;-34.700;-110.900;976.5;8.0;48.93234;12.62226;376.9;65.2
20181213_154327;1.161;8.679;4.264;0.066;0.061;0.024;146.0;57.400;-34.800;-110.900;976.5;8.0;48.93234;12.62226;376.9;65.2
20181213_154327;0.656;9.757;4.829;0.049;0.062;0.042;144.0;57.600;-34.700;-110.700;976.5;8.0;48.93234;12.62226;376.9;65.2
20181213_154327;0.670;8.753;4.164;0.041;-0.087;0.011;144.0;58.000;-34.900;-110.400;976.5;8.0;48.93234;12.62226;376.9;65.2
20181213_154327;0.555;8.136;3.565;-0.015;0.153;0.008;144.0;58.300;-35.000;-109.900;976.5;8.0;48.93234;12.62226;376.9;65.2
20181213_154328;0.455;8.761;4.896;-0.058;0.057;0.031;144.0;58.100;-35.100;-110.100;976.5;8.0;48.93234;12.62226;376.9;65.2
20181213_154328;0.177;8.691;3.891;-0.049;-0.066;-0.025;144.0;58.000;-35.100;-110.300;976.5;8.0;48.93234;12.62226;376.9;65.2
20181213_154328;0.101;8.476;3.563;-0.062;-0.200;-0.025;144.0;58.000;-35.200;-110.200;976.5;8.0;48.93234;12.62226;376.9;65.2
20181213_154328;0.637;8.354;3.541;-0.015;0.059;-0.013;144.0;58.000;-35.200;-109.900;976.5;8.0;48.93234;12.62226;376.9;65.2
20181213_154328;0.115;8.864;3.982;0.030;-0.045;0.039;144.0;58.200;-35.200;-110.000;976.5;8.0;48.93250;12.62228;376.8;65.2
20181213_154328;0.572;7.650;5.284;0.018;0.101;0.044;144.0;58.200;-35.100;-110.000;976.5;8.0;48.93250;12.62228;376.8;65.2
20181213_154328;0.843;8.655;3.328;0.043;0.026;0.035;144.0;58.100;-35.100;-109.900;976.5;8.0;48.93250;12.62228;376.8;65.2
20181213_154328;0.113;8.670;4.180;-0.023;-0.091;0.077;144.0;58.100;-35.200;-109.900;976.5;8.0;48.93250;12.62228;376.8;65.2
20181213_154329;0.496;8.361;3.412;-0.007;-0.008;0.030;144.0;58.300;-35.300;-109.800;976.5;8.0;48.93250;12.62228;376.8;65.2
20181213_154329;0.196;8.689;2.296;0.029;-0.042;0.005;144.0;58.400;-35.400;-109.900;976.5;8.0;48.93250;12.62228;376.8;65.2
20181213_154329;0.747;9.769;4.757;0.088;-0.142;-0.013;144.0;58.300;-35.300;-109.800;976.5;8.0;48.93250;12.62228;376.8;65.2
20181213_154329;-0.802;8.739;4.247;-0.050;0.169;-0.026;144.0;57.900;-35.200;-109.800;976.5;8.0;48.93250;12.62228;376.8;65.2
20181213_154329;-0.273;8.404;3.608;-0.055;-0.035;-0.064;144.0;57.900;-35.200;-109.900;976.5;8.0;48.93250;12.62228;376.8;65.2
20181213_154329;-0.342;8.440;2.617;0.010;0.063;0.035;141.0;58.000;-35.000;-109.900;976.5;8.0;48.93266;12.62229;376.8;65.2
20181213_154329;0.464;9.113;3.639;-0.133;-0.020;0.052;141.0;58.500;-35.100;-109.900;976.5;8.0;48.93266;12.62229;376.8;65.2
20181213_154329;0.443;8.528;4.042;-0.011;-0.076;-0.003;144.0;58.400;-35.100;-109.700;976.5;8.0;48.93266;12.62229;376.8;65.2
20181213_154329;0.646;8.926;3.974;0.123;-0.075;-0.055;141.0;58.500;-35.200;-109.900;976.5;8.0;48.93266;12.62229;376.8;65.2
20181213_154330;0.089;9.929;2.871;-0.185;0.154;0.018;141.0;58.200;-35.000;-110.000;976.5;8.0;48.93266;12.62229;376.8;65.2
20181213_154330;0.180;9.627;3.345;-0.095;0.113;0.018;144.0;58.300;-34.900;-110.100;976.5;8.0;48.93266;12.62229;376.8;65.2
20181213_154330;0.294;8.962;4.178;0.000;-0.142;-0.047;144.0;58.400;-34.900;-109.900;976.5;8.0;48.93266;12.62229;376.8;65.2
20181213_154330;0.618;9.694;4.082;-0.016;-0.062;-0.054;141.0;58.700;-35.000;-109.500;976.5;8.0;48.93266;12.62229;376.8;65.2
20181213_154330;0.666;9.558;4.054;0.138;0.172;-0.012;125.0;58.700;-35.200;-109.400;976.5;8.0;48.93283;12.62230;376.7;65.5
20181213_154330;0.960;8.943;2.490;-0.171;0.037;-0.043;125.0;58.400;-35.100;-109.400;976.5;8.0;48.93283;12.62230;376.7;65.5
20181213_154330;0.946;8.485;5.502;0.037;0.048;0.049;119.0;58.300;-35.000;-109.700;976.5;8.0;48.93283;12.62230;376.7;65.5
20181213_154330;-0.153;9.132;5.478;0.091;-0.017;0.032;121.0;58.500;-35.000;-109.700;976.5;8.0;48.93283;12.62230;376.7;65.5
20181213_154330;0.536;9.726;3.369;0.018;-0.133;-0.037;121.0;58.700;-35.100;-109.900;976.5;8.0;48.93283;12.62230;376.7;65.5
20181213_154331;0.247;9.189;3.558;0.004;0.104;-0.006;121.0;58.800;-35.100;-109.800;976.5;8.0;48.93283;12.62230;376.7;65.5
20181213_154331;0.005;9.108;4.956;-0.008;0.096;0.024;123.0;59.000;-35.100;-109.600;976.5;8.0;48.93283;12.62230;376.7;65.5
20181213_154331;0.488;8.303;3.311;0.046;0.002;0.026;123.0;58.800;-35.000;-109.700;976.5;8.0;48.93283;12.62230;376.7;65.5
20181213_154331;0.778;8.478;3.086;-0.108;-0.010;-0.009;125.0;58.700;-34.900;-110.000;976.5;8.0;48.93283;12.62230;376.7;65.5
20181213_154331;0.680;9.070;3.654;-0.017;-0.096;-0.057;125.0;58.700;-35.000;-110.300;976.5;8.0;48.93299;12.62231;376.7;66.0
20181213_154331;-0.091;7.796;4.846;-0.103;0.023;-0.015;123.0;59.000;-35.100;-110.500;976.5;8.0;48.93299;12.62231;376.7;66.0
20181213_154331;0.476;9.060;6.098;-0.141;0.134;0.049;125.0;59.200;-35.100;-110.500;976.5;8.0;48.93299;12.62231;376.7;66.0
20181213_154331;0.038;8.744;2.895;-0.220;0.014;0.026;125.0;59.200;-35.100;-110.500;976.5;8.0;48.93299;12.62231;376.7;66.0
20181213_154331;1.642;8.689;5.437;0.054;-0.161;-0.082;127.0;59.100;-34.900;-110.300;976.5;8.0;48.93299;12.62231;376.7;66.0
20181213_154332;0.579;8.399;3.187;0.074;0.099;0.066;127.0;59.300;-34.800;-110.500;976.5;8.0;48.93299;12.62231;376.7;66.0
20181213_154332;-0.922;9.213;2.830;-0.098;-0.056;0.088;127.0;59.500;-34.800;-110.400;976.5;8.0;48.93299;12.62231;376.7;66.0
20181213_154332;0.915;8.492;3.201;0.225;-0.070;-0.050;125.0;59.800;-34.900;-110.200;976.5;8.0;48.93299;12.62231;376.7;66.0
20181213_154332;0.486;9.436;5.052;0.009;0.060;0.023;125.0;59.600;-35.000;-110.300;976.5;8.0;48.93299;12.62231;376.7;66.0
20181213_154332;0.297;8.849;6.395;0.109;0.037;-0.059;127.0;59.400;-34.900;-110.400;976.5;8.0;48.93316;12.62232;376.7;66.3
20181213_154332;0.055;9.223;5.500;0.141;-0.089;0.002;128.0;59.500;-35.000;-110.200;976.5;8.0;48.93316;12.62232;376.7;66.3
20181213_154332;0.381;9.110;4.463;0.030;-0.095;-0.023;128.0;59.500;-35.000;-110.200;976.5;8.0;48.93316;12.62232;376.7;66.3
20181213_154332;0.479;9.606;4.525;0.085;-0.037;-0.037;125.0;59.700;-35.200;-110.200;976.5;8.0;48.93316;12.62232;376.7;66.3
20181213_154332;0.206;8.428;2.998;-0.231;0.058;0.010;125.0;59.600;-35.400;-110.200;976.5;8.0;48.93316;12.62232;376.7;66.3
20181213_154333;1.034;8.200;4.552;0.085;0.063;-0.061;123.0;59.500;-35.400;-110.100;976.5;8.0;48.93316;12.62232;376.7;66.3
20181213_154333;1.401;8.765;3.275;0.061;-0.043;-0.043;125.0;59.300;-35.300;-109.900;976.5;8.0;48.93316;12.62232;376.7;66.3
20181213_154333;-0.376;9.146;5.272;0.010;-0.040;0.035;125.0;59.300;-35.200;-109.700;976.4;8.0;48.93316;12.62232;376.7;66.3
20181213_154333;0.764;8.449;3.510;0.033;0.085;0.013;125.0;59.400;-35.200;-109.700;976.4;8.0;48.93316;12.62232;376.7;66.3
20181213_154333;0.601;9.421;5.014;0.005;-0.035;0.011;128.0;59.700;-35.200;-109.700;976.4;8.0;48.93332;12.62233;376.6;66.6
20181213_154333;0.359;9.316;3.534;0.040;-0.173;-0.038;128.0;59.800;-35.100;-109.900;976.4;8.0;48.93332;12.62233;376.6;66.6
20181213_154333;0.534;7.875;4.039;-0.157;0.040;-0.049;125.0;59.500;-35.000;-110.200;976.4;8.0;48.93332;12.62233;376.6;66.6
20181213_154333;1.140;7.743;3.522;0.172;0.051;-0.004;123.0;59.600;-35.100;-110.200;976.4;8.0;48.93332;12.62233;376.6;66.6
20181213_154333;1.077;8.315;3.874;0.083;-0.022;-0.013;123.0;59.500;-35.100;-110.400;976.4;8.0;48.93332;12.62233;376.6;66.6
20181213_154334;0.687;8.619;4.212;0.035;0.059;-0.010;121.0;59.800;-35.100;-110.400;976.4;8.0;48.93332;12.62233;376.6;66.6
20181213_154334;0.077;8.622;4.307;0.034;-0.001;0.049;121.0;59.700;-35.100;-110.400;976.4;8.0;48.93332;12.62233;376.6;66.6
20181213_154334;-0.189;10.420;6.050;0.074;0.017;-0.003;125.0;59.800;-35.100;-110.400;976.5;8.0;48.93332;12.62233;376.6;66.6
20181213_154334;0.045;9.077;3.177;-0.108;0.041;0.057;128.0;59.500;-34.900;-110.500;976.5;8.0;48.93332;12.62233;376.6;66.6
20181213_154334;0.187;9.577;4.085;-0.067;-0.006;0.026;128.0;59.600;-34.900;-110.600;976.5;8.0;48.93349;12.62234;376.6;66.6
20181213_154334;0.328;9.043;3.960;0.005;0.022;-0.012;128.0;59.800;-34.800;-110.500;976.5;8.0;48.93349;12.62234;376.6;66.6
20181213_154334;0.833;9.230;4.156;0.008;-0.032;-0.054;128.0;60.100;-35.000;-110.400;976.5;8.0;48.93349;12.62234;376.6;66.6
20181213_154334;1.030;8.945;4.690;0.111;0.007;-0.013;127.0;60.400;-35.100;-110.000;976.5;8.0;48.93349;12.62234;376.6;66.6
20181213_154334;1.075;8.821;4.501;0.079;0.189;-0.056;125.0;60.200;-35.100;-110.000;976.5;8.0;48.93349;12.62234;376.6;66.6
20181213_154335;0.773;8.033;3.302;-0.085;0.049;-0.036;125.0;60.100;-35.000;-109.900;976.5;8.0;48.93349;12.62234;376.6;66.6
20181213_154335;0.912;8.864;3.292;-0.045;-0.024;0.014;123.0;60.300;-35.100;-109.900;976.5;8.0;48.93349;12.62234;376.6;66.6
20181213_154335;-0.160;8.572;2.562;0.068;-0.082;-0.045;121.0;60.400;-35.100;-109.900;976.5;8.0;48.93349;12.62234;376.6;66.6
20181213_154335;1.006;7.923;3.065;-0.047;-0.047;-0.046;121.0;60.600;-35.200;-109.800;976.5;8.0;48.93349;12.62234;376.6;66.6
20181213_154335;1.358;7.405;3.884;-0.011;0.012;0.063;125.0;60.400;-35.300;-110.000;976.5;8.0;48.93365;12.62234;376.6;66.4
20181213_154335;1.863;8.684;4.681;-0.069;-0.136;0.035;125.0;60.000;-35.200;-109.700;976.5;8.0;48.93365;12.62234;376.6;66.4
20181213_154335;1.015;8.392;3.986;-0.073;-0.012;-0.039;123.0;59.700;-35.200;-109.500;976.5;8.0;48.93365;12.62234;376.6;66.4
20181213_154335;1.049;8.282;2.895;-0.038;-0.035;-0.089;123.0;59.500;-35.100;-109.700;976.5;8.0;48.93365;12.62234;376.6;66.4
20181213_154335;0.958;9.692;3.263;-0.027;-0.017;0.049;123.0;59.300;-35.100;-110.100;976.5;8.0;48.93365;12.62234;376.6;66.4
20181213_154336;0.630;8.196;2.638;0.102;-0.017;0.011;119.0;59.500;-35.000;-110.300;976.5;8.0;48.93365;12.62234;376.6;66.4
20181213_154336;0.460;8.483;2.919;-0.038;0.007;0.010;119.0;59.700;-34.900;-110.600;976.5;8.0;48.93365;12.62234;376.6;66.4
20181213_154336;0.651;8.770;3.110;-0.010;-0.033;0.005;122.0;59.800;-34.800;-110.400;976.5;8.0;48.93365;12.62234;376.6;66.4
20181213_154336;1.528;8.361;3.000;-0.019;0.080;0.030;122.0;59.700;-34.800;-110.300;976.5;8.0;48.93365;12.62234;376.6;66.4
20181213_154336;-0.316;9.328;5.215;0.013;-0.007;0.045;120.0;59.400;-34.900;-110.100;976.5;8.0;48.93365;12.62234;376.6;66.4
20181213_154336;0.256;8.402;4.417;-0.015;-0.003;0.036;122.0;59.600;-34.800;-110.400;976.5;8.0;48.93382;12.62234;376.6;66.0
20181213_154336;0.077;8.545;3.134;-0.095;-0.032;0.032;122.0;59.900;-34.800;-110.300;976.5;8.0;48.93382;12.62234;376.6;66.0
20181213_154336;-0.374;9.687;4.609;0.069;-0.037;0.038;117.0;60.000;-34.900;-110.300;976.5;8.0;48.93382;12.62234;376.6;66.0
20181213_154336;-0.251;9.429;4.286;-0.063;0.069;0.062;127.0;59.600;-34.800;-110.300;976.5;8.0;48.93382;12.62234;376.6;66.0
20181213_154337;0.967;9.366;5.318;0.029;-0.001;-0.031;127.0;59.500;-34.900;-110.400;976.5;8.0;48.93382;12.62234;376.6;66.0
20181213_154337;0.850;9.072;4.858;-0.003;0.021;-0.021;131.0;59.500;-34.900;-110.400;976.5;8.0;48.93382;12.62234;376.6;66.0
20181213_154337;0.836;8.959;3.656;-0.094;0.051;-0.017;131.0;59.600;-34.900;-110.400;976.5;8.0;48.93382;12.62234;376.6;66.0
20181213_154337;0.510;10.109;5.413;0.108;0.071;0.023;137.0;59.600;-34.800;-110.700;976.5;8.0;48.93382;12.62234;376.6;66.0
20181213_154337;1.458;8.272;2.569;0.054;0.050;-0.007;137.0;59.600;-34.700;-110.800;976.5;8.0;48.93398;12.62234;376.5;66.1
20181213_154337;0.084;8.418;3.381;-0.146;-0.000;0.041;137.0;59.600;-34.700;-110.700;976.5;8.0;48.93398;12.62234;376.5;66.1
20181213_154337;0.115;8.095;4.793;0.179;0.038;-0.033;140.0;59.700;-34.800;-110.500;976.5;8.0;48.93398;12.62234;376.5;66.1
20181213_154337;-0.010;9.654;3.488;0.065;0.012;0.008;140.0;59.800;-34.800;-110.100;976.5;8.0;48.93398;12.62234;376.5;66.1
20181213_154337;0.747;7.894;3.603;-0.098;0.098;-0.036;140.0;59.800;-35.100;-109.900;976.5;8.0;48.93398;12.62234;376.5;66.1
20181213_154338;0.848;8.933;4.089;0.083;-0.001;-0.070;138.0;59.800;-35.000;-110.000;976.5;8.0;48.93398;12.62234;376.5;66.1
20181213_154338;0.503;9.199;3.699;-0.024;-0.036;-0.008;138.0;59.700;-34.500;-110.000;976.5;8.0;48.93398;12.62234;376.5;66.1
20181213_154338;0.620;9.352;5.200;0.063;0.046;-0.020;136.0;60.000;-34.100;-109.900;976.5;8.0;48.93398;12.62234;376.5;66.1
20181213_154338;0.565;9.249;4.935;-0.058;0.016;0.044;134.0;60.000;-34.100;-109.800;976.5;8.0;48.93398;12.62234;376.5;66.1
20181213_154338;0.271;8.634;3.919;-0.043;-0.058;0.029;134.0;60.200;-34.200;-109.900;976.5;8.0;48.93415;12.62234;376.5;66.6
20181213_154338;-0.036;8.840;5.327;0.100;-0.015;-0.017;132.0;60.200;-34.000;-110.200;976.5;8.0;48.93415;12.62234;376.5;66.6
20181213_154338;0.761;9.405;3.019;-0.083;0.081;0.022;132.0;60.200;-33.900;-110.200;976.5;8.0;48.93415;12.62234;376.5;66.6
20181213_154338;0.455;9.304;2.830;0.060;0.033;0.016;132.0;60.200;-33.700;-110.000;976.5;8.0;48.93415;12.62234;376.5;66.6
20181213_154338;0.215;9.398;5.255;0.013;0.062;0.007;131.0;60.300;-33.800;-110.000;976.5;8.0;48.93415;12.62234;376.5;66.6
20181213_154339;0.232;8.868;3.421;0.083;0.040;-0.005;131.0;60.300;-33.800;-110.000;976.5;8.0;48.93415;12.62234;376.5;66.6
20181213_154339;-0.084;10.286;4.312;-0.166;-0.023;-0.079;132.0;60.400;-33.700;-109.900;976.5;8.0;48.93415;12.62234;376.5;66.6
20181213_154339;1.176;10.078;2.287;0.195;0.079;0.034;131.0;60.500;-33.400;-109.800;976.5;8.0;48.93415;12.62234;376.5;66.6
20181213_154339;-0.642;8.684;6.117;-0.137;0.071;0.077;131.0;60.600;-33.200;-109.600;976.5;8.0;48.93415;12.62234;376.5;66.6
20181213_154339;0.486;8.560;3.601;0.160;-0.090;-0.040;130.0;60.700;-32.800;-109.600;976.5;8.0;48.93432;12.62233;376.5;67.3
20181213_154339;-0.136;8.995;5.004;0.035;0.010;0.047;116.0;61.200;-32.500;-109.400;976.5;8.0;48.93432;12.62233;376.5;67.3
20181213_154339;-0.256;9.125;4.176;0.019;-0.051;-0.006;116.0;62.000;-32.600;-109.200;976.5;8.0;48.93432;12.62233;376.5;67.3
20181213_154339;0.201;9.943;3.963;-0.089;-0.081;0.041;72.0;62.700;-33.000;-108.900;976.5;8.0;48.93432;12.62233;376.5;67.3
20181213_154339;-0.352;9.457;4.516;0.091;-0.094;-0.005;72.0;63.100;-33.800;-108.600;976.5;8.0;48.93432;12.62233;376.5;67.3
20181213_154340;1.195;9.565;2.969;-0.165;0.056;-0.056;44.0;63.000;-34.500;-108.500;976.5;8.0;48.93432;12.62233;376.5;67.3
20181213_154340;0.974;9.481;4.331;-0.069;-0.003;0.030;34.0;63.000;-35.100;-108.900;976.5;8.0;48.93432;12.62233;376.5;67.3
20181213_154340;-0.182;9.208;4.683;0.072;-0.015;0.026;34.0;63.000;-35.800;-109.400;976.5;8.0;48.93432;12.62233;376.5;67.3
20181213_154340;0.508;9.417;4.985;0.068;0.040;0.001;39.0;62.800;-36.300;-110.000;976.6;8.0;48.93432;12.62233;376.5;67.3
20181213_154340;-0.869;7.822;5.061;0.060;0.032;-0.050;39.0;62.400;-36.000;-110.000;976.6;8.0;48.93449;12.62232;376.4;69.2
20181213_154340;2.258;9.309;6.891;-0.134;-0.087;-0.036;63.0;61.900;-35.300;-109.800;976.5;8.0;48.93449;12.62232;376.4;69.2
20181213_154340;1.846;8.545;2.030;0.138;0.110;0.022;87.0;61.300;-34.300;-109.600;976.6;8.0;48.93449;12.62232;376.4;69.2
20181213_154340;0.029;9.848;2.978;-0.299;-0.026;0.034;87.0;61.000;-33.800;-109.900;976.5;8.0;48.93449;12.62232;376.4;69.2
20181213_154340;1.508;9.292;2.016;0.273;0.020;0.025;105.0;61.200;-33.600;-109.800;976.5;8.0;48.93449;12.62232;376.4;69.2
20181213_154341;-0.347;9.812;4.846;-0.114;0.019;0.041;107.0;61.500;-33.900;-109.400;976.5;8.0;48.93449;12.62232;376.4;69.2
20181213_154341;1.101;8.600;3.328;0.011;0.008;-0.069;107.0;61.200;-34.100;-109.400;976.5;8.0;48.93449;12.62232;376.4;69.2
20181213_154341;0.431;8.299;4.247;0.021;0.021;-0.078;103.0;61.200;-34.300;-109.400;976.5;8.0;48.93449;12.62232;376.4;69.2
20181213_154341;-0.306;9.230;4.492;0.045;0.013;-0.003;103.0;61.100;-34.500;-109.500;976.5;8.0;48.93449;12.62232;376.4;69.2
20181213_154341;0.335;8.481;3.982;-0.005;0.018;0.006;103.0;61.200;-34.500;-109.200;976.5;8.0;48.93466;12.62231;376.4;68.4
20181213_154341;-0.084;9.369;3.702;-0.095;0.000;-0.026;107.0;61.100;-34.400;-109.100;976.5;8.0;48.93466;12.62231;376.4;68.4
20181213_154341;0.522;8.897;2.562;-0.014;-0.089;-0.003;107.0;61.300;-34.000;-108.800;976.5;8.0;48.93466;12.62231;376.4;68.4
20181213_154341;0.400;9.819;5.306;-0.021;-0.048;-0.017;104.0;61.500;-33.800;-109.300;976.5;8.0;48.93466;12.62231;376.4;68.4
20181213_154341;0.266;8.311;2.251;0.047;0.021;0.032;115.0;61.300;-33.900;-110.100;976.5;8.0;48.93466;12.62231;376.4;68.4
20181213_154342;0.227;7.901;4.056;0.041;0.011;-0.020;115.0;61.000;-34.100;-110.300;976.5;8.0;48.93466;12.62231;376.4;68.4
20181213_154342;0.306;9.453;3.984;0.073;-0.050;0.009;118.0;60.900;-34.300;-110.100;976.5;8.0;48.93466;12.62231;376.4;68.4
20181213_154342;1.097;7.880;2.622;0.092;-0.125;0.008;122.0;60.700;-34.300;-109.900;976.6;8.0;48.93466;12.62231;376.4;68.4
20181213_154342;0.450;9.697;4.674;0.026;0.034;0.015;122.0;60.600;-34.100;-109.700;976.6;8.0;48.93466;12.62231;376.4;68.4
20181213_154342;0.630;9.386;4.106;-0.089;0.004;-0.000;122.0;59.700;-33.400;-109.400;976.6;8.0;48.93483;12.62229;376.4;68.3
20181213_154342;1.099;8.988;3.055;0.019;-0.065;0.010;122.0;62.900;-35.000;-106.500;976.6;8.0;48.93483;12.62229;376.4;68.3
20181213_154342;0.146;9.843;5.042;0.143;-0.017;0.016;72.0;64.100;-31.800;-112.100;976.5;8.0;48.93483;12.62229;376.4;68.3
20181213_154342;0.804;8.722;4.106;0.065;0.073;-0.005;85.0;63.600;-34.800;-109.700;976.5;8.0;48.93483;12.62229;376.4;68.3
20181213_154343;0.057;8.928;3.563;-0.113;0.043;-0.032;85.0;62.500;-33.800;-111.000;976.5;8.0;48.93483;12.62229;376.4;68.3
20181213_154343;0.764;9.438;3.951;-0.402;0.184;0.057;135.0;61.300;-34.400;-110.300;976.5;8.0;48.93483;12.62229;376.4;68.3
20181213_154343;0.280;9.637;1.690;-0.181;-0.025;-0.016;138.0;60.900;-34.400;-110.200;976.5;8.0;48.93483;12.62229;376.4;68.3
20181213_154343;0.910;8.217;3.122;0.028;0.038;0.004;138.0;60.800;-34.700;-110.200;976.5;8.0;48.93483;12.62229;376.4;68.3
20181213_154343;-0.156;8.560;2.866;-0.091;0.010;0.027;140.0;60.600;-34.900;-109.900;976.5;8.0;48.93500;12.62228;376.4;68.4
20181213_154343;-0.086;8.691;3.963;-0.050;0.039;-0.047;140.0;60.900;-35.000;-110.000;976.4;8.0;48.93500;12.62228;376.4;68.4
20181213_154343;0.053;10.401;2.260;0.170;-0.039;-0.092;140.0;60.900;-35.000;-110.100;976.4;8.0;48.93500;12.62228;376.4;68.4
20181213_154343;0.120;9.225;3.639;-0.076;0.007;0.026;139.0;60.800;-35.000;-109.900;976.4;8.0;48.93500;12.62228;376.4;68.4
20181213_154343;0.285;9.429;3.941;0.157;-0.071;0.005;139.0;60.500;-34.900;-109.800;976.4;8.0;48.93500;12.62228;376.4;68.4
20181213_154344;1.025;8.220;3.268;-0.055;0.210;-0.029;141.0;60.600;-34.800;-109.600;976.4;8.0;48.93500;12.62228;376.4;68.4
20181213_154344;0.728;8.011;3.594;-0.031;-0.007;-0.065;142.0;60.800;-34.600;-109.700;976.4;8.0;48.93500;12.62228;376.4;68.4
20181213_154344;0.917;8.320;3.067;0.062;-0.016;0.037;142.0;61.300;-34.800;-109.600;976.4;8.0;48.93500;12.62228;376.4;68.4
20181213_154344;0.163;8.466;2.718;0.163;0.010;-0.015;141.0;61.100;-34.900;-109.800;976.4;8.0;48.93500;12.62228;376.4;68.4
20181213_154344;0.596;9.814;3.675;-0.173;-0.045;0.037;141.0;60.600;-35.000;-109.900;976.4;8.0;48.93517;12.62226;376.4;68.3
20181213_154344;0.268;7.880;4.961;0.103;0.074;-0.009;144.0;60.300;-34.800;-109.900;976.4;8.0;48.93517;12.62226;376.4;68.3
20181213_154344;0.874;9.132;3.302;-0.069;-0.023;-0.050;143.0;60.700;-34.800;-110.000;976.4;8.0;48.93517;12.62226;376.4;68.3
20181213_154344;0.682;9.843;3.134;0.018;-0.058;-0.046;143.0;61.000;-34.900;-109.700;976.4;8.0;48.93517;12.62226;376.4;68.3
20181213_154344;1.051;9.132;3.074;-0.041;-0.060;-0.021;143.0;61.100;-35.000;-109.700;976.4;8.0;48.93517;12.62226;376.4;68.3
20181213_154345;0.261;9.393;4.599;-0.028;-0.040;-0.032;145.0;60.800;-35.100;-109.600;976.4;8.0;48.93517;12.62226;376.4;68.3
20181213_154345;1.013;8.514;3.862;0.129;-0.044;-0.004;145.0;60.600;-35.100;-109.900;976.4;8.0;48.93517;12.62226;376.4;68.3
20181213_154345;0.998;9.019;2.569;-0.118;-0.062;-0.042;145.0;60.600;-35.200;-110.000;976.4;8.0;48.93517;12.62226;376.4;68.3
20181213_154345;0.965;8.725;3.235;-0.015;0.037;0.069;145.0;60.700;-35.200;-109.700;976.4;8.0;48.93517;12.62226;376.4;68.3
20181213_154345;0.678;8.701;5.208;0.161;-0.098;-0.050;145.0;60.900;-35.400;-109.400;976.4;8.0;48.93517;12.62226;376.4;68.3
20181213_154345;0.893;9.019;5.413;0.148;0.025;0.046;145.0;61.000;-35.200;-109.500;976.4;8.0;48.93534;12.62225;376.5;68.2
20181213_154345;0.043;7.607;4.990;-0.037;-0.196;-0.078;145.0;61.000;-35.200;-109.800;976.4;8.0;48.93534;12.62225;376.5;68.2
20181213_154345;-0.294;9.742;3.105;-0.344;-0.115;-0.084;147.0;60.900;-35.100;-109.900;976.4;8.0;48.93534;12.62225;376.5;68.2
20181213_154345;0.515;8.935;6.577;0.386;0.077;-0.009;147.0;61.200;-35.000;-109.900;976.4;8.0;48.93534;12.62225;376.5;68.2
20181213_154346;-0.508;9.589;3.766;-0.212;-0.050;0.012;144.0;61.400;-35.000;-110.000;976.4;8.0;48.93534;12.62225;376.5;68.2
20181213_154346;0.474;9.541;2.876;0.069;0.198;-0.015;145.0;61.500;-35.100;-109.700;976.4;8.0;48.93534;12.62225;376.5;68.2
20181213_154346;0.735;8.473;4.906;-0.035;0.019;0.022;145.0;61.400;-35.200;-109.600;976.4;8.0;48.93534;12.62225;376.5;68.2
20181213_154346;-0.005;8.900;4.731;-0.039;-0.009;0.026;147.0;61.000;-35.300;-109.400;976.4;8.0;48.93534;12.62225;376.5;68.2
20181213_154346;1.166;9.024;3.998;0.032;-0.022;-0.016;145.0;61.000;-35.200;-109.600;976.4;8.0;48.93550;12.62223;376.5;67.6
20181213_154346;0.527;8.488;4.698;-0.022;-0.049;-0.034;145.0;61.000;-35.100;-109.500;976.4;8.0;48.93550;12.62223;376.5;67.6
20181213_154346;-0.261;8.677;4.228;-0.042;0.034;-0.003;145.0;61.200;-35.300;-109.700;976.4;8.0;48.93550;12.62223;376.5;67.6
20181213_154346;-0.385;8.291;5.356;0.058;0.060;0.007;145.0;61.200;-35.300;-109.800;976.4;8.0;48.93550;12.62223;376.5;67.6
20181213_154346;1.030;8.854;3.948;0.074;0.062;0.032;145.0;61.300;-35.300;-109.700;976.4;8.0;48.93550;12.62223;376.5;67.6
20181213_154347;0.002;8.153;3.251;-0.110;0.069;0.014;145.0;61.200;-35.200;-109.700;976.4;8.0;48.93550;12.62223;376.5;67.6
20181213_154347;0.177;9.287;5.598;-0.020;-0.006;-0.007;145.0;61.200;-35.200;-109.600;976.4;8.0;48.93550;12.62223;376.5;67.6
20181213_154347;0.362;9.661;4.221;0.060;-0.014;0.039;145.0;61.100;-35.100;-109.400;976.4;8.0;48.93550;12.62223;376.5;67.6
20181213_154347;0.567;8.835;4.123;-0.050;0.002;-0.009;145.0;61.300;-35.100;-109.400;976.4;8.0;48.93550;12.62223;376.5;67.6
20181213_154347;0.453;8.703;4.836;0.050;-0.050;-0.051;147.0;61.400;-35.000;-109.400;976.4;8.0;48.93550;12.62223;376.5;67.6
20181213_154347;-0.984;7.851;3.120;0.026;0.020;-0.019;147.0;61.400;-35.000;-109.700;976.4;8.0;48.93567;12.62221;376.5;67.2
20181213_154347;-0.438;7.918;5.500;0.244;0.039;0.146;147.0;61.200;-35.100;-109.600;976.4;8.0;48.93567;12.62221;376.5;67.2
20181213_154347;0.563;9.855;3.661;0.020;-0.021;-0.020;147.0;61.200;-35.500;-109.700;976.4;8.0;48.93567;12.62221;376.5;67.2
20181213_154347;0.838;8.662;5.658;-0.079;-0.098;0.010;147.0;61.000;-35.800;-109.700;976.4;8.0;48.93567;12.62221;376.5;67.2
20181213_154347;1.051;9.053;3.965;0.039;0.049;0.020;146.0;61.100;-35.900;-109.900;976.4;8.0;48.93567;12.62221;376.5;67.2
20181213_154348;1.065;9.850;5.375;0.004;0.079;0.016;146.0;60.900;-35.800;-109.900;976.4;8.0;48.93567;12.62221;376.5;67.2
20181213_154348;0.668;9.896;4.475;0.017;0.054;-0.007;146.0;60.800;-35.800;-109.800;976.4;8.0;48.93567;12.62221;376.5;67.2
20181213_154348;0.486;8.928;4.377;0.090;-0.045;0.016;149.0;60.500;-35.800;-110.000;976.4;8.0;48.93567;12.62221;376.5;67.2
20181213_154348;0.737;9.093;4.884;-0.045;-0.020;-0.003;146.0;60.600;-35.900;-109.800;976.4;8.0;48.93567;12.62221;376.5;67.2
20181213_154348;0.115;9.141;4.183;-0.083;-0.079;-0.012;146.0;60.700;-35.900;-110.000;976.4;8.0;48.93584;12.62219;376.5;66.7
20181213_154348;0.220;9.129;2.935;-0.067;-0.095;-0.019;146.0;61.000;-35.800;-110.100;976.4;8.0;48.93584;12.62219;376.5;66.7
20181213_154348;0.278;7.844;4.329;0.079;0.035;0.032;146.0;61.200;-35.700;-110.000;976.4;8.0;48.93584;12.62219;376.5;66.7
20181213_154348;0.139;8.782;4.003;0.049;-0.059;-0.050;147.0;61.100;-35.600;-109.800;976.4;8.0;48.93584;12.62219;376.5;66.7
20181213_154349;1.197;9.225;5.083;0.037;0.103;0.024;146.0;60.800;-35.700;-109.900;976.4;8.0;48.93584;12.62219;376.5;66.7
20181213_154349;2.006;10.590;5.148;-0.141;0.176;-0.061;146.0;60.900;-35.600;-109.900;976.4;8.0;48.93584;12.62219;376.5;66.7
20181213_154349;-0.280;9.050;4.429;0.076;0.023;0.056;146.0;61.000;-35.800;-109.800;976.4;8.0;48.93584;12.62219;376.5;66.7
20181213_154349;-0.187;8.741;4.753;-0.040;-0.057;-0.035;146.0;61.100;-35.900;-109.800;976.4;8.0;48.93584;12.62219;376.5;66.7
20181213_154349;-0.318;10.020;5.684;0.037;0.078;-0.037;146.0;61.200;-35.800;-109.700;976.4;8.0;48.93600;12.62217;376.5;66.3
20181213_154349;-0.778;8.421;2.837;0.027;-0.045;-0.009;146.0;61.000;-35.700;-109.900;976.4;8.0;48.93600;12.62217;376.5;66.3
20181213_154349;0.050;8.864;4.262;0.224;-0.001;0.072;146.0;61.100;-35.600;-110.000;976.4;8.0;48.93600;12.62217;376.5;66.3
20181213_154349;-0.838;7.736;6.239;0.124;-0.028;0.034;146.0;60.800;-35.600;-109.900;976.4;8.0;48.93600;12.62217;376.5;66.3
20181213_154349;-0.156;7.980;5.390;0.081;0.063;0.024;149.0;61.100;-35.800;-109.500;976.4;8.0;48.93600;12.62217;376.5;66.3
20181213_154350;-0.596;10.078;3.261;0.042;0.128;-0.014;149.0;61.000;-35.800;-109.300;976.4;8.0;48.93600;12.62217;376.5;66.3
20181213_154350;-0.460;9.539;3.304;-0.108;0.137;0.074;146.0;60.900;-35.600;-109.300;976.4;8.0;48.93600;12.62217;376.5;66.3
20181213_154350;1.015;10.063;4.156;0.280;0.018;-0.049;149.0;61.200;-35.600;-109.500;976.4;8.0;48.93600;12.62217;376.5;66.3
20181213_154350;-0.146;9.524;6.077;-0.127;0.001;0.035;149.0;61.200;-35.300;-109.800;976.4;8.0;48.93600;12.62217;376.5;66.3
20181213_154350;0.740;9.271;4.432;0.087;-0.007;0.015;141.0;60.600;-35.300;-110.000;976.4;8.0;48.93617;12.62215;376.5;66.2
20181213_154350;0.778;9.393;4.923;-0.002;-0.018;-0.045;135.0;60.100;-35.300;-109.300;976.4;8.0;48.93617;12.62215;376.5;66.2
20181213_154350;-0.414;8.150;1.975;-0.015;0.035;0.032;135.0;60.800;-35.700;-108.800;976.4;8.0;48.93617;12.62215;376.5;66.2
20181213_154350;-0.338;8.878;2.931;0.157;-0.097;-0.003;139.0;61.400;-35.700;-108.800;976.4;8.0;48.93617;12.62215;376.5;66.2
20181213_154350;0.986;8.265;5.727;-0.249;0.060;0.011;147.0;61.500;-35.500;-109.200;976.4;8.0;48.93617;12.62215;376.5;66.2
20181213_154351;0.785;9.146;4.817;-0.014;0.038;0.038;147.0;61.400;-35.300;-109.300;976.4;8.0;48.93617;12.62215;376.5;66.2
20181213_154351;1.049;10.066;3.230;-0.115;-0.013;-0.001;147.0;61.100;-35.300;-109.400;976.4;8.0;48.93617;12.62215;376.5;66.2
20181213_154351;-1.398;9.096;4.465;-0.053;0.004;0.110;147.0;61.100;-35.200;-109.500;976.4;8.0;48.93617;12.62215;376.5;66.2
20181213_154351;0.453;9.517;1.520;-0.036;-0.096;0.014;149.0;60.700;-35.200;-109.700;976.4;8.0;48.93617;12.62215;376.5;66.2
20181213_154351;0.663;9.398;3.113;0.072;0.005;-0.041;149.0;60.700;-35.300;-109.900;976.4;8.0;48.93633;12.62213;376.6;66.3
20181213_154351;0.400;7.990;3.302;-0.020;0.007;0.031;149.0;60.700;-35.500;-110.100;976.4;8.0;48.93633;12.62213;376.6;66.3
20181213_154351;0.515;8.797;3.826;0.022;0.080;0.026;149.0;61.000;-35.600;-110.200;976.4;8.0;48.93633;12.62213;376.6;66.3
20181213_154351;0.005;8.454;3.929;0.011;-0.085;-0.028;149.0;61.000;-35.700;-110.100;976.4;8.0;48.93633;12.62213;376.6;66.3
20181213_154351;-0.215;8.504;5.411;-0.062;0.028;0.040;149.0;60.900;-35.700;-110.100;976.4;8.0;48.93633;12.62213;376.6;66.3
20181213_154352;-0.067;9.022;3.759;0.033;-0.081;-0.019;149.0;60.600;-35.500;-110.100;976.4;8.0;48.93633;12.62213;376.6;66.3
20181213_154352;0.244;8.634;3.330;0.016;-0.040;-0.002;149.0;60.200;-35.400;-109.800;976.4;8.0;48.93633;12.62213;376.6;66.3
20181213_154352;0.953;9.122;3.884;0.023;0.092;0.047;143.0;60.600;-35.300;-109.800;976.4;8.0;48.93633;12.62213;376.6;66.3
20181213_154352;1.109;9.141;5.457;0.079;0.026;-0.002;147.0;61.600;-35.500;-109.600;976.4;8.0;48.93633;12.62213;376.6;66.3
20181213_154352;0.045;9.345;6.153;0.111;-0.026;-0.009;147.0;62.100;-35.500;-109.900;976.4;8.0;48.93650;12.62210;376.6;65.6
20181213_154352;0.802;8.971;3.084;0.078;0.030;-0.034;141.0;61.900;-35.500;-109.800;976.3;8.0;48.93650;12.62210;376.6;65.6
20181213_154352;0.876;8.567;5.105;-0.008;0.090;-0.036;141.0;61.600;-35.500;-109.500;976.3;8.0;48.93650;12.62210;376.6;65.6
20181213_154352;-0.007;9.156;3.872;0.025;0.035;-0.016;141.0;61.300;-35.500;-109.500;976.3;8.0;48.93650;12.62210;376.6;65.6
20181213_154353;-0.225;9.534;4.449;-0.103;0.067;0.035;143.0;61.400;-35.700;-109.300;976.3;8.0;48.93650;12.62210;376.6;65.6
20181213_154353;0.766;9.836;4.303;0.085;0.024;0.018;145.0;61.400;-35.800;-109.300;976.3;8.0;48.93650;12.62210;376.6;65.6
20181213_154353;0.318;9.237;4.008;-0.176;-0.003;-0.014;145.0;61.300;-35.700;-109.200;976.3;8.0;48.93650;12.62210;376.6;65.6
20181213_154353;0.742;8.758;5.322;0.121;0.040;0.029;141.0;61.100;-35.200;-109.000;976.3;8.0;48.93650;12.62210;376.6;65.6
20181213_154353;1.264;8.667;5.979;0.109;0.049;0.041;138.0;60.700;-35.100;-109.000;976.3;8.0;48.93666;12.62207;376.7;65.6
20181213_154353;-0.271;9.146;5.356;-0.163;0.030;0.054;138.0;60.300;-35.200;-109.500;976.3;8.0;48.93666;12.62207;376.7;65.6
20181213_154353;1.403;9.850;3.539;-0.094;-0.006;0.022;141.0;60.400;-35.200;-109.600;976.3;8.0;48.93666;12.62207;376.7;65.6
20181213_154353;1.121;9.472;2.955;-0.045;0.000;-0.020;141.0;60.600;-35.400;-109.600;976.3;8.0;48.93666;12.62207;376.7;65.6
20181213_154353;0.989;9.821;3.998;-0.023;0.117;0.038;145.0;61.000;-35.600;-109.600;976.4;8.0;48.93666;12.62207;376.7;65.6
20181213_154354;0.359;10.355;3.237;-0.001;0.034;0.021;147.0;61.000;-35.600;-109.600;976.4;8.0;48.93666;12.62207;376.7;65.6
20181213_154354;0.939;9.855;4.769;-0.021;-0.005;-0.032;147.0;60.900;-35.600;-109.900;976.4;8.0;48.93666;12.62207;376.7;65.6
20181213_154354;1.420;9.208;2.655;0.030;0.092;-0.042;145.0;61.100;-35.700;-109.900;976.4;8.0;48.93666;12.62207;376.7;65.6
20181213_154354;-0.486;8.387;4.738;-0.089;0.048;0.011;145.0;61.200;-35.900;-110.000;976.4;8.0;48.93666;12.62207;376.7;65.6
20181213_154354;0.043;8.208;4.247;-0.062;-0.022;0.010;145.0;61.300;-35.900;-110.100;976.4;8.0;48.93682;12.62204;376.7;64.7
20181213_154354;0.596;8.126;3.290;-0.050;-0.004;-0.029;143.0;61.500;-35.900;-110.000;976.4;8.0;48.93682;12.62204;376.7;64.7
20181213_154354;0.883;8.265;3.541;0.071;-0.010;0.044;143.0;61.800;-36.100;-109.900;976.4;8.0;48.93682;12.62204;376.7;64.7
20181213_154354;0.036;8.794;4.942;-0.025;-0.005;0.007;145.0;61.800;-36.200;-109.700;976.4;8.0;48.93682;12.62204;376.7;64.7
20181213_154354;0.998;9.321;3.309;-0.048;-0.041;-0.008;143.0;61.500;-36.300;-109.700;976.3;8.0;48.93682;12.62204;376.7;64.7
20181213_154355;0.563;8.844;4.647;0.135;0.049;-0.017;143.0;61.100;-36.100;-109.700;976.3;8.0;48.93682;12.62204;376.7;64.7
20181213_154355;0.670;9.125;5.519;-0.003;0.050;-0.061;143.0;61.000;-36.100;-109.900;976.3;8.0;48.93682;12.62204;376.7;64.7
20181213_154355;0.627;9.029;3.522;0.027;-0.071;0.043;143.0;60.900;-36.000;-110.200;976.3;8.0;48.93682;12.62204;376.7;64.7
20181213_154355;1.061;7.860;4.741;-0.090;0.051;0.077;144.0;61.000;-36.200;-110.300;976.3;8.0;48.93682;12.62204;376.7;64.7
20181213_154355;-0.362;8.624;5.152;-0.112;0.122;0.001;139.0;61.100;-36.200;-110.100;976.3;8.0;48.93698;12.62201;376.8;64.1
20181213_154355;-0.170;8.473;4.504;0.086;-0.130;0.031;139.0;61.100;-36.200;-109.900;976.3;8.0;48.93698;12.62201;376.8;64.1
20181213_154355;0.807;9.407;4.999;-0.043;0.033;0.035;139.0;60.800;-36.100;-110.100;976.3;8.0;48.93698;12.62201;376.8;64.1
20181213_154355;0.936;9.828;4.796;0.002;0.123;-0.005;139.0;60.700;-36.000;-110.500;976.3;8.0;48.93698;12.62201;376.8;64.1
20181213_154355;0.522;8.641;3.134;0.048;-0.061;0.014;139.0;60.700;-35.600;-110.900;976.3;8.0;48.93698;12.62201;376.8;64.1
20181213_154356;0.608;8.339;3.860;0.057;-0.083;0.030;141.0;60.700;-35.600;-110.500;976.3;8.0;48.93698;12.62201;376.8;64.1
20181213_154356;0.982;9.041;4.683;0.080;0.010;-0.029;141.0;60.400;-35.700;-110.100;976.3;8.0;48.93698;12.62201;376.8;64.1
20181213_154356;0.362;9.132;4.552;-0.062;0.066;0.021;139.0;60.200;-36.000;-109.500;976.3;8.0;48.93698;12.62201;376.8;64.1
20181213_154356;1.413;9.560;4.738;-0.178;0.121;-0.053;139.0;61.000;-36.300;-109.200;976.3;8.0;48.93698;12.62201;376.8;64.1
20181213_154356;-0.223;7.073;4.635;0.038;-0.015;-0.032;132.0;61.500;-36.400;-109.300;976.3;8.0;48.93698;12.62201;376.8;64.1
20181213_154356;0.395;7.894;3.898;0.021;-0.042;0.007;134.0;62.800;-36.400;-108.700;976.3;8.0;48.93714;12.62198;376.8;63.8
20181213_154356;0.486;9.350;3.512;0.010;-0.045;0.085;134.0;63.300;-36.400;-108.000;976.3;8.0;48.93714;12.62198;376.8;63.8
20181213_154356;-0.069;9.508;4.844;-0.036;0.037;-0.058;139.0;64.200;-36.500;-107.000;976.3;8.0;48.93714;12.62198;376.8;63.8
20181213_154356;0.192;9.556;4.326;-0.050;-0.003;-0.042;139.0;64.400;-36.200;-107.200;976.3;8.0;48.93714;12.62198;376.8;63.8
20181213_154357;0.584;7.743;4.161;0.064;0.156;-0.017;141.0;64.400;-36.200;-107.100;976.3;8.0;48.93714;12.62198;376.8;63.8
20181213_154357;0.249;8.698;3.814;-0.097;-0.011;0.012;141.0;64.000;-36.200;-106.900;976.2;8.0;48.93714;12.62198;376.8;63.8
20181213_154357;-0.441;10.164;4.310;-0.174;0.068;-0.026;141.0;64.100;-36.500;-106.700;976.2;8.0;48.93714;12.62198;376.8;63.8
20181213_154357;0.249;8.909;3.716;0.126;0.178;-0.033;141.0;64.200;-36.500;-107.000;976.2;8.0;48.93714;12.62198;376.8;63.8
20181213_154357;0.773;10.410;1.477;0.349;-0.119;-0.043;143.0;64.600;-36.500;-107.100;976.2;8.0;48.93714;12.62198;376.8;63.8
20181213_154357;0.970;9.290;2.957;-0.207;0.081;-0.039;143.0;64.900;-36.700;-106.800;976.2;8.0;48.93729;12.62195;376.9;63.6
20181213_154357;0.567;8.562;2.176;0.054;0.046;0.004;143.0;65.100;-36.800;-106.500;976.2;8.0;48.93729;12.62195;376.9;63.6
20181213_154357;0.136;9.053;3.330;-0.042;-0.075;-0.016;143.0;64.700;-36.600;-106.300;976.3;8.0;48.93729;12.62195;376.9;63.6
20181213_154357;0.122;9.081;4.243;-0.048;0.043;0.045;144.0;64.600;-36.400;-106.200;976.2;8.0;48.93729;12.62195;376.9;63.6
20181213_154358;0.551;9.038;4.322;-0.031;-0.011;-0.059;143.0;64.700;-36.000;-106.200;976.3;8.0;48.93729;12.62195;376.9;63.6
20181213_154358;0.412;7.451;3.093;-0.009;-0.000;-0.014;143.0;65.000;-35.800;-106.100;976.3;8.0;48.93729;12.62195;376.9;63.6
20181213_154358;-0.163;9.228;3.283;-0.165;-0.086;0.018;144.0;65.000;-35.400;-106.100;976.2;8.0;48.93729;12.62195;376.9;63.6
20181213_154358;1.118;8.528;4.872;0.052;-0.029;0.013;148.0;64.000;-34.900;-106.900;976.2;8.0;48.93729;12.62195;376.9;63.6
20181213_154358;0.000;8.081;3.158;0.009;-0.051;0.006;148.0;62.900;-34.400;-108.100;976.2;8.0;48.93745;12.62191;377.0;63.0
20181213_154358;1.231;8.332;2.567;0.029;-0.003;-0.002;147.0;62.400;-34.300;-108.800;976.2;8.0;48.93745;12.62191;377.0;63.0
20181213_154358;1.288;8.890;3.769;0.062;-0.010;-0.024;147.0;62.800;-34.300;-108.900;976.2;8.0;48.93745;12.62191;377.0;63.0
20181213_154358;0.412;8.588;4.427;0.010;-0.068;-0.046;146.0;63.200;-34.300;-109.100;976.2;8.0;48.93745;12.62191;377.0;63.0
20181213_154358;0.939;8.859;3.302;-0.100;-0.059;0.032;146.0;63.300;-34.300;-109.000;976.2;8.0;48.93745;12.62191;377.0;63.0
20181213_154358;0.481;9.520;4.334;-0.003;-0.068;0.054;146.0;63.400;-34.100;-109.100;976.2;8.0;48.93745;12.62191;377.0;63.0
20181213_154359;0.632;9.263;5.057;0.065;0.155;0.008;144.0;63.700;-34.000;-109.000;976.2;8.0;48.93745;12.62191;377.0;63.0
20181213_154359;0.876;8.425;3.271;-0.039;0.005;-0.045;144.0;64.000;-34.100;-109.100;976.2;8.0;48.93745;12.62191;377.0;63.0
20181213_154359;0.572;8.437;3.888;-0.137;-0.059;-0.003;142.0;64.500;-34.100;-108.700;976.2;8.0;48.93745;12.62191;377.0;63.0
20181213_154359;1.097;8.770;5.533;-0.058;-0.023;0.041;144.0;64.600;-33.900;-108.800;976.2;8.0;48.93745;12.62191;377.0;63.0
20181213_154359;0.397;7.559;3.055;-0.155;0.012;-0.019;144.0;64.400;-33.500;-108.800;976.2;8.0;48.93760;12.62187;377.0;62.6
20181213_154359;0.125;8.509;4.257;0.037;-0.029;0.001;141.0;64.000;-33.400;-109.000;976.2;8.0;48.93760;12.62187;377.0;62.6
20181213_154359;1.228;8.588;3.836;-0.003;0.037;-0.021;141.0;64.000;-33.500;-108.600;976.2;8.0;48.93760;12.62187;377.0;62.6
20181213_154359;0.891;7.693;4.142;-0.014;0.029;0.048;138.0;63.700;-33.600;-109.100;976.2;8.0;48.93760;12.62187;377.0;62.6
20181213_154400;0.534;8.797;4.441;0.079;-0.011;-0.003;133.0;63.700;-33.600;-109.400;976.2;8.0;48.93760;12.62187;377.0;62.6
20181213_154400;0.713;8.969;4.853;-0.031;-0.040;-0.003;133.0;63.900;-33.700;-109.300;976.2;8.0;48.93760;12.62187;377.0;62.6
20181213_154400;0.630;8.227;3.129;-0.061;-0.025;0.007;127.0;64.100;-33.700;-109.200;976.2;8.0;48.93760;12.62187;377.0;62.6
20181213_154400;0.838;7.990;6.139;0.007;0.024;0.004;119.0;64.200;-33.600;-109.200;976.2;8.0;48.93760;12.62187;377.0;62.6
20181213_154400;-0.977;7.200;5.581;0.000;0.183;0.004;119.0;64.100;-33.600;-109.000;976.2;8.0;48.93775;12.62183;377.1;61.4
20181213_154400;0.096;8.435;3.144;-0.097;-0.048;-0.006;113.0;64.300;-33.700;-108.800;976.2;8.0;48.93775;12.62183;377.1;61.4
20181213_154400;0.436;9.848;6.223;0.016;-0.014;-0.007;109.0;64.400;-33.700;-109.000;976.2;8.0;48.93775;12.62183;377.1;61.4
20181213_154400;0.831;7.793;3.407;-0.003;0.068;-0.004;109.0;64.400;-33.800;-109.000;976.2;8.0;48.93775;12.62183;377.1;61.4
20181213_154400;0.443;8.921;3.812;-0.077;-0.006;-0.020;111.0;64.300;-33.800;-109.100;976.2;8.0;48.93775;12.62183;377.1;61.4
20181213_154401;0.668;7.796;2.610;-0.081;0.056;-0.017;111.0;64.400;-33.800;-109.200;976.2;8.0;48.93775;12.62183;377.1;61.4
20181213_154401;-0.347;10.353;5.011;0.047;-0.204;0.026;111.0;64.600;-33.700;-109.100;976.2;8.0;48.93775;12.62183;377.1;61.4
20181213_154401;-0.079;8.392;3.350;0.159;0.048;0.021;111.0;64.900;-33.800;-109.200;976.2;8.0;48.93775;12.62183;377.1;61.4
20181213_154401;0.426;9.354;5.820;0.079;-0.069;-0.003;111.0;64.800;-33.900;-109.200;976.2;8.0;48.93775;12.62183;377.1;61.4
20181213_154401;0.256;10.257;4.058;0.087;-0.015;0.071;111.0;64.800;-34.100;-109.200;976.2;8.0;48.93790;12.62179;377.2;60.4
20181213_154401;-0.048;9.738;4.925;0.013;0.092;0.082;113.0;64.400;-34.200;-108.900;976.2;8.0;48.93790;12.62179;377.2;60.4
20181213_154401;3.129;6.761;6.347;0.165;0.113;-0.046;113.0;64.200;-34.300;-108.600;976.2;8.0;48.93790;12.62179;377.2;60.4
20181213_154401;2.480;8.756;2.454;-0.221;0.227;-0.136;115.0;63.800;-34.400;-108.800;976.2;8.0;48.93790;12.62179;377.2;60.4
20181213_154401;0.845;8.751;3.785;-0.063;0.022;0.015;115.0;64.000;-34.400;-109.200;976.2;8.0;48.93790;12.62179;377.2;60.4
20181213_154402;0.838;8.672;5.519;0.099;-0.050;0.010;114.0;64.100;-34.300;-109.600;976.2;8.0;48.93790;12.62179;377.2;60.4
20181213_154402;-0.285;9.024;4.482;-0.066;-0.026;-0.028;115.0;64.200;-34.300;-109.700;976.2;8.0;48.93790;12.62179;377.2;60.4
20181213_154402;0.551;8.078;2.682;-0.030;-0.012;-0.036;115.0;64.500;-34.500;-109.400;976.2;8.0;48.93790;12.62179;377.2;60.4
20181213_154402;1.784;9.058;5.452;0.054;0.182;-0.003;115.0;64.600;-34.700;-109.000;976.2;8.0;48.93790;12.62179;377.2;60.4
20181213_154402;-0.081;8.181;3.457;0.006;-0.106;0.004;115.0;64.600;-34.800;-109.000;976.2;8.0;48.93805;12.62175;377.2;59.7
20181213_154402;0.790;8.883;4.513;-0.026;0.010;-0.000;117.0;64.300;-34.700;-109.000;976.2;8.0;48.93805;12.62175;377.2;59.7
20181213_154402;0.297;8.806;4.583;-0.023;0.021;0.008;117.0;64.200;-34.600;-109.200;976.2;8.0;48.93805;12.62175;377.2;59.7
20181213_154402;0.591;8.564;3.493;-0.052;0.021;0.009;117.0;64.000;-34.700;-109.300;976.2;8.0;48.93805;12.62175;377.2;59.7
20181213_154402;0.737;9.362;3.673;0.086;0.012;0.008;117.0;63.800;-34.800;-109.400;976.2;8.0;48.93805;12.62175;377.2;59.7
20181213_154403;-0.182;8.832;4.257;0.021;0.011;-0.008;117.0;63.400;-34.800;-109.600;976.2;8.0;48.93805;12.62175;377.2;59.7
20181213_154403;0.297;7.951;4.561;-0.015;0.021;-0.009;117.0;63.500;-35.000;-109.700;976.2;8.0;48.93805;12.62175;377.2;59.7
20181213_154403;-0.022;8.703;4.786;-0.009;0.033;-0.021;114.0;63.500;-35.200;-109.600;976.2;8.0;48.93805;12.62175;377.2;59.7
20181213_154403;0.441;8.488;4.176;-0.026;0.003;0.007;114.0;63.600;-35.200;-109.500;976.2;8.0;48.93805;12.62175;377.2;59.7
20181213_154403;-0.366;9.146;3.139;0.080;0.009;-0.012;113.0;63.500;-35.200;-109.300;976.2;8.0;48.93820;12.62170;377.3;59.3
20181213_154403;0.429;9.678;3.984;-0.013;-0.000;0.013;115.0;63.500;-35.300;-109.200;976.2;8.0;48.93820;12.62170;377.3;59.3
20181213_154403;0.627;8.751;3.103;0.038;0.012;0.011;115.0;63.400;-35.300;-109.300;976.2;8.0;48.93820;12.62170;377.3;59.3
20181213_154403;0.510;10.140;6.002;0.013;-0.007;0.008;113.0;63.200;-35.300;-109.200;976.2;8.0;48.93820;12.62170;377.3;59.3
20181213_154403;0.998;9.702;5.150;0.006;-0.017;0.014;113.0;63.100;-35.300;-109.200;976.2;8.0;48.93820;12.62170;377.3;59.3
20181213_154404;0.936;8.694;3.934;-0.004;-0.020;0.008;109.0;63.000;-35.400;-109.100;976.2;8.0;48.93820;12.62170;377.3;59.3
20181213_154404;1.319;8.526;3.342;0.018;-0.022;0.007;109.0;63.100;-35.500;-109.000;976.2;8.0;48.93820;12.62170;377.3;59.3
20181213_154404;0.812;9.172;4.812;-0.023;-0.000;-0.010;109.0;63.000;-35.600;-109.100;976.2;8.0;48.93820;12.62170;377.3;59.3
20181213_154404;0.338;8.299;2.042;0.044;-0.014;-0.001;107.0;63.000;-35.600;-109.000;976.2;8.0;48.93820;12.62170;377.3;59.3
20181213_154404;0.623;7.338;2.782;-0.001;-0.003;-0.004;107.0;63.100;-35.700;-109.000;976.2;8.0;48.93820;12.62170;377.3;59.3
20181213_154404;0.184;9.134;5.595;-0.066;-0.002;0.004;109.0;63.000;-35.600;-109.100;976.2;8.0;48.93834;12.62166;377.4;59.0
20181213_154404;-0.213;8.761;4.777;-0.031;0.001;0.005;109.0;63.000;-35.600;-109.200;976.2;8.0;48.93834;12.62166;377.4;59.0
20181213_154404;0.443;8.538;5.320;0.032;0.018;-0.000;111.0;62.900;-35.600;-109.000;976.2;8.0;48.93834;12.62166;377.4;59.0
20181213_154404;0.615;9.678;4.609;-0.020;0.010;0.008;111.0;62.800;-35.600;-108.900;976.2;8.0;48.93834;12.62166;377.4;59.0
20181213_154404;0.673;8.689;3.117;-0.020;-0.000;0.015;111.0;62.600;-35.600;-109.100;976.2;8.0;48.93834;12.62166;377.4;59.0
20181213_154405;0.376;8.837;3.656;0.012;0.004;0.019;111.0;62.500;-35.800;-109.200;976.2;8.0;48.93834;12.62166;377.4;59.0
20181213_154405;1.159;9.307;4.547;0.021;-0.014;0.025;111.0;62.400;-35.800;-109.100;976.2;8.0;48.93834;12.62166;377.4;59.0
20181213_154405;0.625;9.489;3.450;0.016;0.008;0.002;111.0;62.300;-35.800;-109.100;976.2;8.0;48.93834;12.62166;377.4;59.0
20181213_154405;1.559;8.342;4.054;-0.064;-0.009;0.002;111.0;62.300;-35.800;-109.100;976.2;8.0;48.93834;12.62166;377.4;59.0
20181213_154405;1.003;9.350;4.425;-0.017;0.001;-0.016;113.0;62.400;-35.600;-109.000;976.1;8.0;48.93849;12.62161;377.5;58.8
20181213_154405;0.654;10.006;4.044;-0.019;-0.009;-0.012;115.0;62.400;-35.400;-109.000;976.2;8.0;48.93849;12.62161;377.5;58.8
20181213_154405;0.663;8.883;3.091;0.087;-0.023;0.002;114.0;62.700;-35.300;-109.200;976.1;8.0;48.93849;12.62161;377.5;58.8
20181213_154405;0.424;8.521;3.618;0.034;-0.001;-0.006;114.0;62.700;-35.100;-109.000;976.1;8.0;48.93849;12.62161;377.5;58.8
20181213_154405;0.706;9.575;3.323;-0.006;0.000;-0.001;117.0;62.700;-35.100;-109.000;976.1;8.0;48.93849;12.62161;377.5;58.8
20181213_154406;0.929;8.576;4.101;-0.074;-0.005;0.005;117.0;62.700;-35.100;-109.000;976.1;8.0;48.93849;12.62161;377.5;58.8
20181213_154406;0.843;8.375;3.874;0.003;-0.009;-0.003;117.0;62.700;-35.200;-109.100;976.1;8.0;48.93849;12.62161;377.5;58.8
20181213_154406;1.068;9.656;4.496;0.032;0.000;-0.010;119.0;62.600;-35.100;-109.100;976.1;8.0;48.93849;12.62161;377.5;58.8
20181213_154406;0.522;9.007;4.386;0.003;0.004;-0.015;119.0;62.600;-35.000;-109.300;976.1;8.0;48.93849;12.62161;377.5;58.8
20181213_154406;0.587;8.471;3.749;0.094;0.010;-0.012;120.0;62.700;-35.100;-109.200;976.1;8.0;48.93863;12.62156;377.6;58.8
20181213_154406;0.848;10.121;6.069;-0.020;0.005;0.006;118.0;62.600;-35.100;-109.400;976.1;8.0;48.93863;12.62156;377.6;58.8
20181213_154406;0.084;9.218;3.594;0.019;0.011;-0.023;118.0;62.600;-35.200;-109.400;976.1;8.0;48.93863;12.62156;377.6;58.8
20181213_154406;0.584;8.495;3.735;0.003;0.005;-0.001;123.0;62.600;-35.300;-109.500;976.1;8.0;48.93863;12.62156;377.6;58.8
20181213_154406;0.520;9.594;5.090;0.026;0.010;-0.015;123.0;62.500;-35.300;-109.300;976.1;8.0;48.93863;12.62156;377.6;58.8
20181213_154407;0.508;8.686;4.614;-0.045;-0.006;0.006;120.0;62.300;-35.300;-109.500;976.1;8.0;48.93863;12.62156;377.6;58.8
20181213_154407;0.283;8.679;4.202;-0.025;0.004;0.001;120.0;62.300;-35.400;-109.600;976.1;8.0;48.93863;12.62156;377.6;58.8
20181213_154407;0.031;9.105;4.226;0.032;-0.008;0.014;121.0;62.300;-35.500;-109.600;976.1;8.0;48.93863;12.62156;377.6;58.8
20181213_154407;0.134;9.843;4.990;-0.028;-0.014;0.009;118.0;62.300;-35.400;-109.700;976.1;8.0;48.93863;12.62156;377.6;58.8
20181213_154407;-0.249;9.101;3.958;0.007;0.004;-0.012;118.0;62.300;-35.300;-109.800;976.1;8.0;48.93877;12.62152;377.7;58.4
20181213_154407;0.172;8.088;3.232;-0.005;-0.005;-0.000;118.0;62.200;-35.200;-109.900;976.1;8.0;48.93877;12.62152;377.7;58.4
20181213_154407;0.354;8.873;3.757;-0.006;-0.007;0.008;117.0;62.000;-35.000;-109.700;976.1;8.0;48.93877;12.62152;377.7;58.4
20181213_154407;0.201;8.576;6.544;0.018;-0.014;0.010;117.0;62.100;-35.000;-109.400;976.1;8.0;48.93877;12.62152;377.7;58.4
20181213_154407;-0.156;8.466;4.559;0.010;0.029;0.005;118.0;62.300;-34.900;-109.500;976.1;8.0;48.93877;12.62152;377.7;58.4
20181213_154408;1.609;8.902;4.489;0.109;0.007;-0.021;118.0;62.300;-34.900;-109.800;976.1;8.0;48.93877;12.62152;377.7;58.4
20181213_154408;-0.225;8.028;4.384;-0.147;0.017;0.009;120.0;62.500;-35.100;-109.500;976.1;8.0;48.93877;12.62152;377.7;58.4
20181213_154408;0.321;9.833;5.107;-0.002;0.008;0.016;122.0;62.700;-35.300;-109.700;976.1;8.0;48.93877;12.62152;377.7;58.4
20181213_154408;0.500;10.001;3.481;0.025;0.004;-0.017;122.0;62.700;-35.300;-110.000;976.1;8.0;48.93877;12.62152;377.7;58.4
20181213_154408;1.149;9.884;3.893;0.049;0.046;-0.015;124.0;62.400;-35.300;-110.100;976.1;8.0;48.93892;12.62147;377.8;57.6
20181213_154408;0.294;8.133;5.083;-0.062;0.013;0.002;124.0;62.200;-35.300;-109.900;976.1;8.0;48.93892;12.62147;377.8;57.6
20181213_154408;0.043;8.452;4.468;-0.057;0.023;-0.006;124.0;62.000;-35.300;-110.100;976.1;8.0;48.93892;12.62147;377.8;57.6
20181213_154408;-0.041;7.674;4.736;0.014;0.025;-0.007;124.0;62.100;-35.400;-110.200;976.1;8.0;48.93892;12.62147;377.8;57.6
20181213_154408;0.280;8.758;4.832;-0.055;0.017;0.007;124.0;62.200;-35.400;-110.100;976.1;8.0;48.93892;12.62147;377.8;57.6
20181213_154409;-0.256;9.242;5.174;-0.005;0.010;0.011;124.0;62.300;-35.400;-110.200;976.1;8.0;48.93892;12.62147;377.8;57.6
20181213_154409;0.903;9.182;5.057;0.007;0.008;0.017;124.0;62.400;-35.600;-110.100;976.1;8.0;48.93892;12.62147;377.8;57.6
20181213_154409;0.366;9.137;4.458;0.015;0.009;-0.004;124.0;62.500;-35.800;-110.000;976.1;8.0;48.93892;12.62147;377.8;57.6
20181213_154409;0.663;9.479;5.809;-0.052;0.010;0.005;123.0;62.500;-35.900;-109.800;976.1;8.0;48.93892;12.62147;377.8;57.6
20181213_154409;0.479;9.117;5.162;0.049;-0.007;0.011;123.0;62.600;-36.100;-109.900;976.1;8.0;48.93905;12.62142;377.9;56.4
20181213_154409;0.486;9.062;4.530;-0.006;-0.001;-0.009;119.0;62.600;-36.300;-110.000;976.1;8.0;48.93905;12.62142;377.9;56.4
20181213_154409;0.558;8.045;3.979;0.071;-0.001;-0.005;117.0;62.600;-36.400;-110.100;976.1;8.0;48.93905;12.62142;377.9;56.4
20181213_154409;0.840;8.253;2.217;0.058;-0.020;-0.003;117.0;62.800;-36.500;-110.300;976.1;8.0;48.93905;12.62142;377.9;56.4
20181213_154409;0.627;8.993;6.381;-0.098;0.004;-0.018;115.0;62.900;-36.600;-110.400;976.1;8.0;48.93905;12.62142;377.9;56.4
20181213_154410;1.506;9.024;4.698;0.019;-0.012;0.003;115.0;63.100;-36.700;-110.600;976.1;8.0;48.93905;12.62142;377.9;56.4
20181213_154410;1.439;9.761;6.532;0.024;-0.033;0.015;115.0;63.100;-36.900;-110.500;976.1;8.0;48.93905;12.62142;377.9;56.4
20181213_154410;1.374;8.878;5.890;0.032;-0.020;0.003;115.0;63.200;-37.000;-110.400;976.1;8.0;48.93905;12.62142;377.9;56.4
20181213_154410;0.929;9.314;5.571;-0.052;-0.004;-0.010;115.0;63.200;-37.100;-110.300;976.1;8.0;48.93905;12.62142;377.9;56.4
20181213_154410;0.414;8.313;4.185;-0.033;-0.002;-0.025;113.0;63.300;-37.100;-110.200;976.1;8.0;48.93905;12.62142;377.9;56.4
20181213_154410;1.128;8.054;3.532;0.011;-0.016;-0.007;113.0;63.300;-37.100;-110.200;976.1;8.0;48.93919;12.62138;378.0;54.6
20181213_154410;1.032;7.944;5.605;-0.106;-0.011;-0.001;117.0;63.400;-37.100;-110.000;976.1;8.0;48.93919;12.62138;378.0;54.6
20181213_154410;1.240;8.552;4.324;-0.027;-0.012;-0.001;117.0;63.500;-36.900;-109.900;976.1;8.0;48.93919;12.62138;378.0;54.6
20181213_154410;0.982;8.770;6.402;-0.066;0.004;-0.004;119.0;63.600;-36.600;-109.800;976.1;8.0;48.93919;12.62138;378.0;54.6
20181213_154410;1.137;8.555;5.433;0.029;-0.001;-0.018;119.0;63.500;-36.300;-109.700;976.1;8.0;48.93919;12.62138;378.0;54.6
20181213_154411;0.881;8.035;5.892;0.071;0.006;-0.022;119.0;63.400;-36.100;-109.700;976.1;8.0;48.93919;12.62138;378.0;54.6
20181213_154411;0.661;8.176;6.982;-0.037;0.005;-0.020;119.0;63.300;-36.000;-109.400;976.1;8.0;48.93919;12.62138;378.0;54.6
20181213_154411;1.276;8.976;5.933;0.103;-0.028;0.008;119.0;63.200;-35.900;-109.300;976.1;8.0;48.93919;12.62138;378.0;54.6
20181213_154411;1.530;8.057;2.162;0.047;-0.020;0.013;120.0;63.300;-35.900;-109.100;976.1;8.0;48.93919;12.62138;378.0;54.6
20181213_154411;0.395;8.516;3.168;0.001;-0.036;0.033;120.0;63.200;-35.800;-109.000;976.1;8.0;48.93932;12.62133;378.2;51.7
20181213_154411;1.053;9.120;4.729;0.085;-0.009;0.001;120.0;63.100;-35.700;-108.900;976.1;8.0;48.93932;12.62133;378.2;51.7
20181213_154411;-0.057;8.368;3.390;0.129;-0.000;-0.030;119.0;63.000;-35.700;-108.900;976.0;8.0;48.93932;12.62133;378.2;51.7
20181213_154411;1.827;8.526;4.884;-0.006;-0.025;0.027;117.0;63.100;-35.700;-108.900;976.0;8.0;48.93932;12.62133;378.2;51.7
20181213_154411;0.321;8.775;4.362;0.011;-0.029;0.002;117.0;62.900;-35.600;-109.200;976.0;8.0;48.93932;12.62133;378.2;51.7
20181213_154412;2.425;7.238;5.935;0.000;-0.006;-0.032;117.0;62.900;-35.700;-109.300;976.0;8.0;48.93932;12.62133;378.2;51.7
20181213_154412;1.446;7.796;6.103;-0.029;-0.037;-0.001;117.0;62.800;-35.700;-109.300;976.0;8.0;48.93932;12.62133;378.2;51.7
20181213_154412;0.453;9.199;4.736;0.052;0.014;-0.065;115.0;62.700;-35.800;-109.300;976.0;8.0;48.93932;12.62133;378.2;51.7
20181213_154412;1.080;7.731;5.385;0.063;-0.009;-0.036;115.0;62.800;-35.800;-109.200;976.0;8.0;48.93932;12.62133;378.2;51.7
20181213_154412;0.826;7.918;5.686;-0.055;-0.032;-0.012;113.0;62.800;-35.700;-109.100;976.0;8.0;48.93944;12.62129;378.3;46.3
20181213_154412;0.098;8.727;4.403;0.088;-0.015;-0.043;111.0;62.800;-35.600;-109.200;976.0;8.0;48.93944;12.62129;378.3;46.3
20181213_154412;0.395;8.028;5.818;-0.009;-0.011;-0.050;111.0;62.900;-35.600;-109.200;976.0;8.0;48.93944;12.62129;378.3;46.3
20181213_154412;1.245;8.658;5.923;0.023;-0.047;-0.039;107.0;63.200;-35.600;-109.500;976.0;8.0;48.93944;12.62129;378.3;46.3
20181213_154412;2.138;8.507;4.975;-0.044;-0.056;-0.031;103.0;63.300;-35.600;-109.700;976.0;8.0;48.93944;12.62129;378.3;46.3
20181213_154413;0.996;8.234;4.542;-0.014;-0.032;-0.073;103.0;63.300;-35.800;-109.800;976.0;8.0;48.93944;12.62129;378.3;46.3
20181213_154413;1.176;8.497;4.259;-0.049;-0.040;-0.067;103.0;63.500;-36.100;-109.800;976.0;8.0;48.93944;12.62129;378.3;46.3
20181213_154413;1.573;8.739;4.755;-0.025;-0.059;-0.043;104.0;63.500;-36.400;-109.900;976.0;8.0;48.93944;12.62129;378.3;46.3
20181213_154413;1.494;8.497;4.743;0.012;-0.067;-0.079;104.0;63.500;-36.600;-109.700;976.0;8.0;48.93944;12.62129;378.3;46.3
20181213_154413;2.002;8.457;5.804;0.023;-0.101;-0.040;110.0;63.600;-36.800;-109.800;976.0;8.0;48.93955;12.62126;378.4;42.6
20181213_154413;2.117;8.078;4.712;0.044;-0.192;-0.064;110.0;64.200;-37.200;-110.100;976.0;8.0;48.93955;12.62126;378.4;42.6
20181213_154413;2.126;7.645;6.304;0.178;-0.193;-0.064;123.0;64.900;-37.300;-110.400;976.0;8.0;48.93955;12.62126;378.4;42.6
20181213_154413;2.586;8.184;5.296;-0.157;-0.127;-0.083;139.0;65.700;-37.600;-110.800;976.0;8.0;48.93955;12.62126;378.4;42.6
20181213_154413;2.962;8.560;5.749;0.030;-0.193;-0.094;139.0;65.800;-37.700;-110.800;976.0;8.0;48.93955;12.62126;378.4;42.6
20181213_154414;2.706;8.006;7.549;0.035;-0.264;-0.111;145.0;65.400;-37.700;-111.100;976.0;8.0;48.93955;12.62126;378.4;42.6
20181213_154414;2.504;7.726;5.603;0.162;-0.155;-0.086;142.0;65.400;-38.000;-111.800;976.0;8.0;48.93955;12.62126;378.4;42.6
20181213_154414;3.239;7.992;7.382;-0.194;-0.200;-0.133;142.0;65.000;-38.500;-112.300;976.0;8.0;48.93955;12.62126;378.4;42.6
20181213_154414;2.356;8.639;4.214;-0.215;-0.254;-0.104;143.0;64.800;-38.700;-112.600;976.0;8.0;48.93955;12.62126;378.4;42.6
20181213_154414;2.794;9.680;3.567;-0.172;-0.251;-0.152;139.0;64.600;-38.700;-112.800;976.0;8.0;48.93965;12.62125;378.5;38.7
20181213_154414;3.089;8.722;3.848;0.110;-0.241;-0.189;139.0;64.500;-38.700;-112.800;976.0;8.0;48.93965;12.62125;378.5;38.7
20181213_154414;3.089;8.370;5.002;-0.079;-0.213;-0.111;137.0;64.200;-38.600;-112.800;976.0;8.0;48.93965;12.62125;378.5;38.7
20181213_154414;2.907;9.268;4.590;-0.028;-0.129;-0.161;136.0;63.900;-39.200;-113.300;976.0;8.0;48.93965;12.62125;378.5;38.7
20181213_154415;2.401;8.181;4.631;0.111;-0.265;-0.135;136.0;63.300;-39.800;-113.600;976.0;8.0;48.93965;12.62125;378.5;38.7
20181213_154415;1.669;7.954;3.603;0.052;-0.238;-0.109;132.0;63.100;-39.900;-113.700;976.0;8.0;48.93965;12.62125;378.5;38.7
20181213_154415;2.356;9.086;3.680;-0.132;-0.261;-0.171;132.0;62.800;-39.900;-114.000;976.0;8.0;48.93965;12.62125;378.5;38.7
20181213_154415;2.696;8.548;4.310;0.097;-0.259;-0.090;131.0;62.400;-39.700;-113.800;976.0;8.0;48.93965;12.62125;378.5;38.7
20181213_154415;2.196;7.999;3.366;0.077;-0.301;-0.120;132.0;61.700;-39.700;-113.900;976.0;8.0;48.93965;12.62125;378.5;38.7
20181213_154415;2.785;8.967;5.871;-0.102;-0.151;-0.078;132.0;60.900;-39.700;-113.700;976.0;8.0;48.93974;12.62127;378.6;37.2
20181213_154415;2.694;9.644;4.552;0.056;-0.295;-0.083;133.0;60.800;-39.800;-113.300;976.0;8.0;48.93974;12.62127;378.6;37.2
20181213_154415;3.057;8.193;6.029;-0.012;-0.193;-0.108;133.0;60.800;-39.700;-112.900;976.0;8.0;48.93974;12.62127;378.6;37.2
20181213_154415;2.708;8.720;4.729;0.063;-0.195;-0.139;131.0;60.500;-39.700;-112.200;976.0;8.0;48.93974;12.62127;378.6;37.2
20181213_154416;2.325;8.157;4.939;0.040;-0.265;-0.099;132.0;59.500;-39.800;-112.400;976.0;8.0;48.93974;12.62127;378.6;37.2
20181213_154416;2.162;8.531;4.571;-0.008;-0.282;-0.091;132.0;58.800;-40.000;-112.500;976.0;8.0;48.93974;12.62127;378.6;37.2
20181213_154416;2.595;8.878;3.053;0.104;-0.215;-0.113;129.0;58.100;-40.000;-112.500;976.0;8.0;48.93974;12.62127;378.6;37.2
20181213_154416;2.495;9.218;3.848;0.031;-0.243;-0.132;129.0;58.000;-40.300;-112.200;976.0;8.0;48.93974;12.62127;378.6;37.2
20181213_154416;2.162;9.254;4.231;0.022;-0.227;-0.039;129.0;57.600;-40.400;-111.800;976.0;8.0;48.93983;12.62132;378.7;36.6
20181213_154416;2.660;8.610;3.685;0.042;-0.284;-0.142;128.0;56.900;-40.600;-111.700;976.0;8.0;48.93983;12.62132;378.7;36.6
20181213_154416;2.897;11.220;2.337;-0.072;-0.165;-0.072;128.0;55.900;-40.500;-111.600;976.0;8.0;48.93983;12.62132;378.7;36.6
20181213_154416;2.150;7.887;3.292;-0.046;-0.232;-0.071;126.0;55.400;-40.600;-111.600;976.0;8.0;48.93983;12.62132;378.7;36.6
20181213_154416;1.417;9.141;3.069;-0.019;-0.365;-0.091;121.0;54.900;-40.600;-111.300;976.0;8.0;48.93983;12.62132;378.7;36.6
20181213_154417;2.358;8.538;3.479;0.120;-0.139;-0.070;121.0;54.700;-40.800;-111.100;976.0;8.0;48.93983;12.62132;378.7;36.6
20181213_154417;2.380;9.144;1.657;-0.168;-0.255;-0.073;120.0;54.200;-40.900;-110.800;976.0;8.0;48.93983;12.62132;378.7;36.6
20181213_154417;2.876;8.797;5.186;-0.039;-0.269;-0.087;120.0;53.500;-40.800;-110.500;976.0;8.0;48.93983;12.62132;378.7;36.6
20181213_154417;2.488;9.311;4.793;0.113;-0.305;-0.135;120.0;53.200;-41.000;-110.100;976.0;8.0;48.93983;12.62132;378.7;36.6
20181213_154417;2.215;9.201;3.172;0.033;-0.237;-0.065;117.0;53.000;-41.100;-109.600;976.0;8.0;48.93990;12.62141;378.7;37.0
20181213_154417;1.939;9.041;3.816;0.053;-0.267;-0.106;117.0;53.000;-41.200;-109.100;976.0;8.0;48.93990;12.62141;378.7;37.0
20181213_154417;2.124;8.725;2.260;-0.116;-0.249;-0.119;117.0;52.400;-41.300;-108.200;976.0;8.0;48.93990;12.62141;378.7;37.0
20181213_154417;2.586;10.264;4.935;-0.111;-0.186;-0.101;115.0;51.800;-41.300;-107.600;976.0;8.0;48.93990;12.62141;378.7;37.0
20181213_154418;2.559;8.002;3.900;-0.095;-0.264;-0.127;113.0;50.300;-41.100;-106.700;976.0;8.0;48.93990;12.62141;378.7;37.0
20181213_154418;1.868;8.907;5.186;-0.185;-0.174;-0.130;110.0;49.900;-41.200;-106.000;976.0;8.0;48.93990;12.62141;378.7;37.0
20181213_154418;2.351;9.579;5.852;-0.030;-0.193;-0.038;110.0;49.900;-41.500;-105.300;976.0;8.0;48.93990;12.62141;378.7;37.0
20181213_154418;1.346;9.661;2.703;-0.125;-0.188;-0.073;110.0;49.800;-41.700;-104.900;976.0;8.0;48.93990;12.62141;378.7;37.0
20181213_154418;1.508;8.868;2.109;0.171;-0.255;-0.102;110.0;49.700;-41.800;-104.400;976.0;8.0;48.93995;12.62152;378.7;39.0
20181213_154418;1.472;8.921;1.331;-0.190;-0.224;-0.045;110.0;49.100;-41.600;-104.100;976.0;8.0;48.93995;12.62152;378.7;39.0
20181213_154418;1.872;8.737;4.049;0.066;-0.208;-0.105;107.0;49.000;-41.900;-103.900;976.0;8.0;48.93995;12.62152;378.7;39.0
20181213_154418;2.006;9.515;3.673;-0.150;-0.050;-0.043;107.0;48.700;-42.500;-103.700;976.0;8.0;48.93995;12.62152;378.7;39.0
20181213_154418;1.657;9.606;3.625;0.043;-0.216;-0.039;100.0;48.600;-43.000;-103.100;976.0;8.0;48.93995;12.62152;378.7;39.0
20181213_154419;1.664;9.115;4.554;0.051;-0.163;-0.087;100.0;48.000;-43.100;-102.700;976.0;8.0;48.93995;12.62152;378.7;39.0
20181213_154419;2.310;9.338;1.777;-0.159;-0.237;-0.086;97.0;47.400;-43.200;-102.300;976.0;8.0;48.93995;12.62152;378.7;39.0
20181213_154419;1.470;9.000;3.486;-0.124;-0.202;-0.033;94.0;46.700;-43.000;-102.200;976.0;8.0;48.93995;12.62152;378.7;39.0
20181213_154419;1.575;8.413;2.895;-0.063;-0.120;-0.039;94.0;46.500;-43.100;-101.900;976.0;8.0;48.93995;12.62152;378.7;39.0
20181213_154419;1.518;9.785;4.243;-0.045;-0.131;-0.076;88.0;46.200;-43.000;-101.300;976.0;8.0;48.93999;12.62167;378.6;41.9
20181213_154419;1.288;9.448;4.063;-0.074;-0.169;0.005;84.0;46.100;-43.000;-100.700;976.0;8.0;48.93999;12.62167;378.6;41.9
20181213_154419;0.769;8.761;3.819;-0.018;-0.081;-0.015;84.0;45.900;-42.800;-100.300;976.0;8.0;48.93999;12.62167;378.6;41.9
20181213_154419;0.654;9.704;5.272;0.107;-0.024;-0.057;82.0;45.500;-42.400;-99.800;976.0;8.0;48.93999;12.62167;378.6;41.9
20181213_154419;0.852;9.232;2.322;0.067;-0.063;-0.035;82.0;45.100;-42.300;-99.500;976.0;8.0;48.93999;12.62167;378.6;41.9
20181213_154420;0.227;10.125;4.185;-0.075;-0.107;0.024;82.0;45.000;-42.100;-99.400;976.0;8.0;48.93999;12.62167;378.6;41.9
20181213_154420;0.400;8.076;2.145;0.021;-0.100;-0.037;86.0;45.000;-42.100;-99.200;976.0;8.0;48.93999;12.62167;378.6;41.9
20181213_154420;0.101;10.054;2.995;-0.105;-0.026;-0.007;86.0;44.900;-42.100;-99.300;976.0;8.0;48.93999;12.62167;378.6;41.9
20181213_154420;0.658;8.935;3.247;0.074;-0.026;-0.017;92.0;44.600;-42.100;-99.200;976.0;8.0;48.93999;12.62167;378.6;41.9
20181213_154420;0.606;8.713;4.231;0.055;-0.095;-0.000;97.0;43.800;-41.800;-99.300;976.0;8.0;48.94002;12.62183;378.6;45.3
20181213_154420;-0.127;8.749;2.179;0.040;-0.120;0.002;97.0;43.400;-41.700;-99.500;976.0;8.0;48.94002;12.62183;378.6;45.3
20181213_154420;0.194;9.872;4.207;0.077;-0.002;-0.017;102.0;43.400;-41.900;-99.800;976.0;8.0;48.94002;12.62183;378.6;45.3
20181213_154420;-0.067;9.220;3.541;-0.027;0.051;0.016;98.0;43.500;-41.900;-99.900;976.0;8.0;48.94002;12.62183;378.6;45.3
20181213_154421;0.031;9.457;5.033;-0.032;0.027;0.008;98.0;43.600;-42.000;-99.700;976.0;8.0;48.94002;12.62183;378.6;45.3
20181213_154421;0.105;8.902;2.179;-0.050;-0.080;-0.007;102.0;43.200;-41.800;-99.400;976.0;8.0;48.94002;12.62183;378.6;45.3
20181213_154421;0.350;7.844;5.028;0.029;0.008;0.003;102.0;43.100;-41.500;-99.200;976.0;8.0;48.94002;12.62183;378.6;45.3
20181213_154421;-0.007;8.701;5.265;0.029;0.007;0.006;102.0;43.300;-41.500;-99.200;976.0;8.0;48.94002;12.62183;378.6;45.3
20181213_154421;-0.292;9.165;4.755;-0.063;-0.043;0.001;99.0;43.500;-41.500;-99.000;976.0;8.0;48.94005;12.62200;378.6;48.2
20181213_154421;0.412;7.997;4.286;-0.064;0.018;-0.004;99.0;43.400;-41.400;-99.100;976.0;8.0;48.94005;12.62200;378.6;48.2
20181213_154421;0.117;8.945;5.842;0.132;-0.017;-0.009;99.0;43.200;-41.300;-99.300;976.0;8.0;48.94005;12.62200;378.6;48.2
20181213_154421;-0.077;8.892;5.212;0.002;-0.080;0.009;100.0;43.300;-41.200;-99.600;976.0;8.0;48.94005;12.62200;378.6;48.2
20181213_154421;-0.182;8.617;4.781;0.021;-0.007;0.012;98.0;43.400;-41.000;-99.500;976.0;8.0;48.94005;12.62200;378.6;48.2
20181213_154422;-0.019;8.289;4.001;0.016;-0.014;0.003;98.0;44.000;-41.100;-99.400;976.0;8.0;48.94005;12.62200;378.6;48.2
20181213_154422;0.110;9.527;5.222;-0.060;0.043;0.016;98.0;44.100;-41.300;-99.500;976.0;8.0;48.94005;12.62200;378.6;48.2
20181213_154422;0.050;8.380;4.324;0.069;-0.014;-0.021;98.0;44.100;-41.600;-99.800;976.1;8.0;48.94005;12.62200;378.6;48.2
20181213_154422;0.122;8.868;4.338;-0.035;-0.013;0.038;98.0;44.000;-41.700;-99.900;976.1;8.0;48.94005;12.62200;378.6;48.2
20181213_154422;0.419;9.242;4.863;0.060;-0.045;0.018;98.0;43.700;-41.600;-99.300;976.1;8.0;48.94007;12.62218;378.6;48.9
20181213_154422;-0.266;8.643;5.370;-0.044;-0.006;0.010;98.0;43.200;-41.400;-99.100;976.1;8.0;48.94007;12.62218;378.6;48.9
20181213_154422;0.129;8.873;3.927;0.112;0.002;0.004;98.0;42.800;-41.300;-99.300;976.1;8.0;48.94007;12.62218;378.6;48.9
20181213_154422;0.206;9.084;3.199;-0.166;-0.088;-0.015;100.0;43.200;-41.300;-99.300;976.1;8.0;48.94007;12.62218;378.6;48.9
20181213_154422;0.194;9.103;2.978;-0.094;-0.105;0.048;100.0;43.100;-41.100;-98.900;976.1;8.0;48.94007;12.62218;378.6;48.9
20181213_154423;-0.113;9.745;2.787;-0.045;-0.006;0.030;98.0;43.100;-41.100;-98.300;976.1;8.0;48.94007;12.62218;378.6;48.9
20181213_154423;0.366;8.097;4.822;-0.092;-0.087;0.005;98.0;42.800;-41.100;-97.800;976.1;8.0;48.94007;12.62218;378.6;48.9
20181213_154423;-0.029;9.556;4.190;0.157;0.026;-0.006;98.0;42.600;-41.100;-98.300;976.1;8.0;48.94007;12.62218;378.6;48.9
20181213_154423;0.215;8.576;3.680;0.164;-0.030;-0.028;100.0;42.200;-40.900;-98.800;976.1;8.0;48.94007;12.62218;378.6;48.9
20181213_154423;0.527;8.957;4.585;0.132;-0.018;-0.012;100.0;41.600;-40.800;-99.600;976.1;8.0;48.94010;12.62237;378.6;48.7
20181213_154423;0.136;10.111;4.314;0.099;0.021;0.033;98.0;41.100;-40.700;-99.600;976.1;8.0;48.94010;12.62237;378.6;48.7
20181213_154423;0.120;8.397;2.634;-0.086;-0.007;0.010;98.0;41.000;-40.800;-99.400;976.1;8.0;48.94010;12.62237;378.6;48.7
20181213_154423;-0.062;10.492;2.880;-0.224;-0.106;0.015;98.0;41.200;-40.700;-99.200;976.1;8.0;48.94010;12.62237;378.6;48.7
20181213_154423;-0.242;10.331;3.565;-0.168;-0.042;-0.001;98.0;41.500;-40.500;-99.300;976.1;8.0;48.94010;12.62237;378.6;48.7
20181213_154424;0.666;9.244;3.467;-0.036;0.015;-0.016;98.0;41.600;-40.400;-99.200;976.1;8.0;48.94010;12.62237;378.6;48.7
20181213_154424;0.752;9.783;3.951;-0.125;0.094;0.022;96.0;41.500;-40.300;-99.000;976.1;8.0;48.94010;12.62237;378.6;48.7
20181213_154424;-0.108;8.514;2.990;0.082;-0.087;0.037;96.0;41.200;-40.200;-99.000;976.1;8.0;48.94010;12.62237;378.6;48.7
20181213_154424;-0.321;8.325;5.143;0.017;-0.027;0.011;96.0;41.100;-40.100;-99.100;976.1;8.0;48.94010;12.62237;378.6;48.7
20181213_154424;-0.098;8.981;3.242;0.098;0.087;-0.005;96.0;41.100;-39.900;-98.900;976.1;8.0;48.94013;12.62255;378.6;50.4
20181213_154424;0.235;9.828;3.175;0.145;0.001;0.015;96.0;41.300;-39.800;-99.300;976.1;8.0;48.94013;12.62255;378.6;50.4
20181213_154424;0.297;8.785;1.896;-0.023;-0.028;0.019;96.0;41.300;-39.600;-99.500;976.1;8.0;48.94013;12.62255;378.6;50.4
20181213_154424;0.263;9.405;5.433;-0.077;-0.025;0.066;98.0;40.700;-39.300;-99.500;976.1;8.0;48.94013;12.62255;378.6;50.4
20181213_154424;-0.713;8.521;0.934;0.272;0.048;0.001;98.0;40.700;-39.000;-99.600;976.1;8.0;48.94013;12.62255;378.6;50.4
20181213_154425;-0.309;9.833;4.027;0.001;-0.014;-0.005;98.0;40.800;-38.900;-99.700;976.1;8.0;48.94013;12.62255;378.6;50.4
20181213_154425;-0.383;7.980;5.864;0.209;-0.032;-0.021;100.0;41.600;-39.000;-99.300;976.1;8.0;48.94013;12.62255;378.6;50.4
20181213_154425;-0.247;8.696;3.141;0.110;0.111;0.010;100.0;41.700;-39.000;-99.200;976.1;8.0;48.94013;12.62255;378.6;50.4
20181213_154425;-0.232;9.340;6.228;0.197;-0.008;0.031;99.0;41.500;-38.900;-99.400;976.1;8.0;48.94013;12.62255;378.6;50.4
20181213_154425;0.024;8.368;2.607;0.101;0.065;0.007;100.0;41.000;-38.800;-99.400;976.1;8.0;48.94016;12.62274;378.6;52.0
20181213_154425;-0.158;9.268;1.360;-0.243;0.076;0.062;100.0;41.000;-38.800;-99.600;976.1;8.0;48.94016;12.62274;378.6;52.0
20181213_154425;-0.441;9.819;4.580;-0.265;0.044;0.070;99.0;41.200;-38.700;-99.700;976.1;8.0;48.94016;12.62274;378.6;52.0
20181213_154425;-0.783;8.926;5.899;0.029;0.044;0.052;99.0;41.600;-38.800;-99.600;976.2;8.0;48.94016;12.62274;378.6;52.0
20181213_154425;-1.391;7.853;3.469;0.140;-0.000;0.015;102.0;41.600;-38.600;-99.300;976.2;8.0;48.94016;12.62274;378.6;52.0
20181213_154426;-1.219;8.938;4.396;0.016;-0.017;0.065;100.0;41.600;-38.500;-99.500;976.2;8.0;48.94016;12.62274;378.6;52.0
20181213_154426;0.965;9.620;3.838;0.064;0.032;0.097;100.0;41.200;-38.400;-99.600;976.2;8.0;48.94016;12.62274;378.6;52.0
20181213_154426;0.493;9.984;4.528;-0.117;0.128;-0.026;98.0;41.200;-38.400;-99.700;976.2;8.0;48.94016;12.62274;378.6;52.0
20181213_154426;-1.094;9.017;4.130;0.060;0.038;0.105;98.0;41.200;-38.300;-99.300;976.2;8.0;48.94016;12.62274;378.6;52.0
20181213_154426;-1.343;8.734;3.493;-0.008;-0.083;0.074;96.0;41.500;-38.200;-99.500;976.2;8.0;48.94020;12.62294;378.6;54.2
20181213_154426;-1.494;8.351;3.330;0.110;0.186;0.018;96.0;41.700;-38.100;-99.900;976.2;8.0;48.94020;12.62294;378.6;54.2
20181213_154426;0.338;9.374;3.321;-0.048;0.089;-0.001;96.0;41.600;-37.900;-100.200;976.2;8.0;48.94020;12.62294;378.6;54.2
20181213_154426;-0.625;8.557;0.927;0.045;0.101;-0.012;94.0;41.500;-37.900;-100.400;976.2;8.0;48.94020;12.62294;378.6;54.2
20181213_154426;-1.662;9.218;4.695;-0.127;0.090;-0.026;92.0;41.200;-38.000;-100.500;976.2;8.0;48.94020;12.62294;378.6;54.2
20181213_154427;-0.893;9.443;3.295;-0.002;0.153;-0.024;92.0;41.200;-38.200;-100.500;976.2;8.0;48.94020;12.62294;378.6;54.2
20181213_154427;-1.336;9.347;2.093;-0.064;0.041;0.115;92.0;41.000;-38.100;-100.500;976.2;8.0;48.94020;12.62294;378.6;54.2
20181213_154427;-1.425;9.532;2.306;-0.222;0.134;0.109;92.0;40.900;-38.100;-100.600;976.2;8.0;48.94020;12.62294;378.6;54.2
20181213_154427;-0.350;9.982;5.615;0.247;0.091;0.070;92.0;40.600;-37.900;-100.800;976.2;8.0;48.94020;12.62294;378.6;54.2
20181213_154427;-0.199;8.916;2.071;-0.204;-0.007;0.077;92.0;40.500;-37.700;-101.600;976.2;8.0;48.94024;12.62314;378.6;56.0
20181213_154427;-0.323;8.768;1.832;-0.187;0.051;0.004;92.0;40.300;-37.500;-102.000;976.2;8.0;48.94024;12.62314;378.6;56.0
20181213_154427;-0.299;8.117;2.758;0.018;0.117;0.026;90.0;40.200;-37.500;-102.200;976.2;8.0;48.94024;12.62314;378.6;56.0
20181213_154427;-1.207;9.151;3.390;0.000;0.066;0.018;90.0;40.300;-37.400;-102.600;976.2;8.0;48.94024;12.62314;378.6;56.0
20181213_154427;-0.716;9.508;3.546;0.047;0.064;-0.037;88.0;40.600;-37.200;-103.000;976.2;8.0;48.94024;12.62314;378.6;56.0
20181213_154428;-0.623;9.603;4.760;-0.039;0.109;-0.009;90.0;41.200;-37.000;-103.200;976.2;8.0;48.94024;12.62314;378.6;56.0
20181213_154428;-0.371;8.502;4.729;0.185;0.081;0.037;90.0;42.100;-37.300;-102.900;976.2;8.0;48.94024;12.62314;378.6;56.0
20181213_154428;-1.137;8.351;3.596;0.265;0.124;0.051;90.0;43.300;-37.300;-102.600;976.2;8.0;48.94024;12.62314;378.6;56.0
20181213_154428;-0.757;9.077;3.577;0.019;0.016;0.008;90.0;43.900;-37.400;-102.500;976.2;8.0;48.94024;12.62314;378.6;56.0
20181213_154428;-0.268;9.802;5.157;0.091;0.123;-0.025;88.0;43.300;-37.300;-103.100;976.2;8.0;48.94031;12.62333;378.6;58.2
20181213_154428;-0.690;8.804;2.536;-0.139;0.074;0.040;87.0;41.900;-37.100;-103.300;976.2;8.0;48.94031;12.62333;378.6;58.2
20181213_154428;-0.057;8.186;3.869;0.050;0.052;-0.016;87.0;40.700;-37.100;-103.100;976.2;8.0;48.94031;12.62333;378.6;58.2
20181213_154428;-0.132;9.299;4.465;-0.027;0.063;0.040;85.0;40.400;-37.300;-102.400;976.2;8.0;48.94031;12.62333;378.6;58.2
20181213_154428;0.168;9.673;2.911;0.030;0.072;0.033;85.0;41.200;-37.400;-101.800;976.2;8.0;48.94031;12.62333;378.6;58.2
20181213_154429;-0.261;10.353;3.795;-0.059;-0.014;0.054;83.0;42.200;-37.200;-102.000;976.2;8.0;48.94031;12.62333;378.6;58.2
20181213_154429;-0.263;9.230;4.786;0.215;0.098;0.060;85.0;42.600;-37.300;-102.400;976.2;8.0;48.94031;12.62333;378.6;58.2
20181213_154429;0.321;10.255;4.451;0.030;-0.001;-0.002;85.0;42.800;-37.600;-102.600;976.2;8.0;48.94031;12.62333;378.6;58.2
20181213_154429;-0.395;10.161;3.146;0.032;0.068;0.039;82.0;42.900;-37.900;-102.400;976.2;8.0;48.94031;12.62333;378.6;58.2
20181213_154429;-0.029;9.680;5.224;0.096;0.006;-0.023;69.0;43.200;-38.100;-102.200;976.2;8.0;48.94038;12.62353;378.6;60.7
20181213_154429;0.656;8.397;2.023;0.007;-0.022;-0.026;69.0;43.600;-38.400;-102.200;976.2;8.0;48.94038;12.62353;378.6;60.7
20181213_154429;0.402;9.486;3.740;0.056;-0.001;-0.062;67.0;43.900;-38.700;-102.100;976.2;8.0;48.94038;12.62353;378.6;60.7
20181213_154429;0.941;10.286;5.516;-0.015;-0.076;-0.060;71.0;44.200;-38.600;-102.500;976.2;8.0;48.94038;12.62353;378.6;60.7
20181213_154430;-0.062;8.672;2.859;0.145;-0.081;0.051;71.0;44.900;-38.200;-103.100;976.2;8.0;48.94038;12.62353;378.6;60.7
20181213_154430;0.122;8.490;2.624;0.007;0.021;-0.003;73.0;44.900;-37.800;-103.300;976.2;8.0;48.94038;12.62353;378.6;60.7
20181213_154430;0.103;9.369;5.129;0.201;-0.013;0.057;74.0;44.900;-38.200;-103.100;976.2;8.0;48.94038;12.62353;378.6;60.7
20181213_154430;0.400;9.809;2.955;-0.161;-0.054;-0.042;74.0;44.800;-38.300;-102.800;976.2;8.0;48.94038;12.62353;378.6;60.7
20181213_154430;1.053;8.909;1.221;0.005;0.017;-0.090;76.0;44.700;-38.600;-102.700;976.2;8.0;48.94047;12.62373;378.6;63.2
20181213_154430;0.814;8.622;2.466;-0.094;-0.117;-0.059;80.0;44.300;-38.400;-102.700;976.2;8.0;48.94047;12.62373;378.6;63.2
20181213_154430;0.895;8.885;3.891;-0.037;-0.173;-0.077;80.0;44.200;-38.500;-102.700;976.2;8.0;48.94047;12.62373;378.6;63.2
20181213_154430;1.949;8.883;3.476;-0.130;0.016;-0.022;82.0;44.300;-38.500;-102.500;976.2;8.0;48.94047;12.62373;378.6;63.2
20181213_154430;1.803;10.362;3.951;-0.024;-0.206;-0.016;82.0;44.600;-38.800;-102.300;976.2;8.0;48.94047;12.62373;378.6;63.2
20181213_154431;1.580;9.297;4.669;-0.026;-0.042;-0.048;82.0;44.700;-38.800;-102.000;976.2;8.0;48.94047;12.62373;378.6;63.2
20181213_154431;1.109;8.466;4.144;-0.075;0.083;-0.039;86.0;44.900;-39.000;-102.100;976.2;8.0;48.94047;12.62373;378.6;63.2
20181213_154431;2.023;9.302;2.014;0.120;-0.281;-0.072;86.0;44.900;-38.800;-102.300;976.2;8.0;48.94047;12.62373;378.6;63.2
20181213_154431;0.599;9.659;3.295;0.161;-0.283;-0.044;91.0;45.200;-38.900;-102.300;976.2;8.0;48.94047;12.62373;378.6;63.2
20181213_154431;2.476;9.182;3.069;0.037;0.096;-0.053;91.0;45.500;-38.900;-101.800;976.1;8.0;48.94047;12.62373;378.6;63.2
20181213_154431;1.343;10.118;4.259;0.084;-0.232;-0.017;93.0;45.600;-39.100;-101.600;976.2;8.0;48.94055;12.62393;378.7;65.6
20181213_154431;2.533;9.536;5.311;-0.077;0.058;-0.091;95.0;45.800;-39.200;-101.700;976.1;8.0;48.94055;12.62393;378.7;65.6
20181213_154431;0.745;9.206;3.692;-0.000;0.069;0.037;95.0;46.100;-39.400;-101.800;976.2;8.0;48.94055;12.62393;378.7;65.6
20181213_154431;0.630;9.362;1.695;-0.022;-0.072;-0.011;97.0;46.300;-39.600;-101.800;976.2;8.0;48.94055;12.62393;378.7;65.6
20181213_154432;0.697;9.125;3.010;0.108;-0.182;-0.026;100.0;46.600;-39.800;-101.700;976.2;8.0;48.94055;12.62393;378.7;65.6
20181213_154432;1.870;9.307;3.611;0.018;-0.141;-0.018;100.0;46.700;-40.300;-101.300;976.2;8.0;48.94055;12.62393;378.7;65.6
20181213_154432;2.502;8.967;4.257;0.170;0.039;-0.048;102.0;46.600;-40.600;-100.900;976.2;8.0;48.94055;12.62393;378.7;65.6
20181213_154432;1.753;9.857;2.279;0.132;0.015;-0.088;104.0;46.500;-40.600;-101.000;976.2;8.0;48.94055;12.62393;378.7;65.6
20181213_154432;1.966;10.334;3.232;0.050;0.010;-0.038;104.0;46.400;-40.600;-101.000;976.2;8.0;48.94063;12.62416;378.7;68.4
20181213_154432;2.112;9.249;3.646;0.023;-0.028;-0.042;104.0;46.800;-40.800;-101.100;976.2;8.0;48.94063;12.62416;378.7;68.4
20181213_154432;2.500;8.524;5.464;0.144;-0.157;-0.033;104.0;47.200;-41.300;-101.000;976.2;8.0;48.94063;12.62416;378.7;68.4
20181213_154432;2.871;9.931;3.584;0.047;-0.199;-0.061;106.0;47.300;-41.600;-100.700;976.2;8.0;48.94063;12.62416;378.7;68.4
20181213_154432;2.957;11.042;3.321;0.070;-0.203;-0.047;106.0;46.900;-41.700;-100.100;976.2;8.0;48.94063;12.62416;378.7;68.4
20181213_154433;2.002;7.650;5.066;0.189;-0.127;-0.012;108.0;46.300;-41.600;-99.900;976.2;8.0;48.94063;12.62416;378.7;68.4
20181213_154433;2.320;7.089;4.329;-0.034;0.052;-0.031;108.0;45.900;-41.500;-99.700;976.2;8.0;48.94063;12.62416;378.7;68.4
20181213_154433;2.804;8.967;4.980;-0.049;-0.142;-0.018;108.0;45.800;-41.500;-99.700;976.2;8.0;48.94063;12.62416;378.7;68.4
20181213_154433;3.476;8.514;3.309;0.130;-0.176;-0.024;110.0;45.600;-41.400;-99.600;976.2;8.0;48.94063;12.62416;378.7;68.4
20181213_154433;3.342;10.238;4.147;-0.116;-0.032;-0.086;110.0;45.600;-41.400;-99.500;976.2;8.0;48.94063;12.62416;378.7;68.4
20181213_154433;3.132;7.925;3.393;0.100;-0.048;-0.096;110.0;45.300;-41.300;-99.500;976.2;8.0;48.94070;12.62440;378.7;71.1
20181213_154433;1.298;10.710;3.290;0.173;-0.094;-0.138;112.0;45.200;-41.400;-99.100;976.2;8.0;48.94070;12.62440;378.7;71.1
20181213_154433;2.188;8.215;5.301;0.022;-0.185;-0.025;112.0;45.000;-41.300;-98.900;976.2;8.0;48.94070;12.62440;378.7;71.1
20181213_154433;2.840;8.318;1.973;0.139;-0.057;-0.114;112.0;45.200;-41.400;-98.500;976.2;8.0;48.94070;12.62440;378.7;71.1
20181213_154433;3.232;9.189;1.281;-0.125;-0.046;-0.099;112.0;45.500;-41.500;-98.400;976.2;8.0;48.94070;12.62440;378.7;71.1
20181213_154434;2.682;10.657;4.635;0.141;-0.062;-0.097;116.0;45.900;-41.700;-98.200;976.2;8.0;48.94070;12.62440;378.7;71.1
20181213_154434;2.667;8.193;4.214;0.059;-0.245;-0.089;116.0;46.000;-41.900;-97.700;976.2;8.0;48.94070;12.62440;378.7;71.1
20181213_154434;2.636;8.208;3.283;0.044;-0.290;-0.028;116.0;46.100;-42.300;-97.600;976.2;8.0;48.94070;12.62440;378.7;71.1
20181213_154434;3.046;9.129;3.692;0.013;-0.131;-0.016;118.0;45.900;-42.600;-97.300;976.2;8.0;48.94070;12.62440;378.7;71.1
20181213_154434;3.455;9.898;3.661;0.011;-0.120;-0.067;118.0;45.900;-42.700;-96.900;976.2;8.0;48.94075;12.62467;378.7;74.2
20181213_154434;3.651;9.378;3.661;-0.028;-0.184;-0.130;118.0;46.000;-42.700;-96.700;976.2;8.0;48.94075;12.62467;378.7;74.2
20181213_154434;3.618;9.975;5.612;-0.086;-0.167;-0.032;120.0;46.100;-42.800;-96.400;976.2;8.0;48.94075;12.62467;378.7;74.2
20181213_154434;2.433;9.572;4.324;-0.135;-0.161;-0.069;120.0;45.800;-43.300;-96.200;976.2;8.0;48.94075;12.62467;378.7;74.2
20181213_154434;2.457;8.674;4.954;0.196;-0.130;-0.087;118.0;45.500;-43.700;-95.800;976.2;8.0;48.94075;12.62467;378.7;74.2
20181213_154435;2.962;9.328;5.593;-0.169;-0.138;-0.053;118.0;45.300;-44.000;-95.500;976.3;8.0;48.94075;12.62467;378.7;74.2
20181213_154435;2.703;8.184;5.090;0.306;-0.050;-0.040;120.0;45.700;-44.100;-95.200;976.2;8.0;48.94075;12.62467;378.7;74.2
20181213_154435;2.907;10.757;2.524;0.008;-0.202;-0.076;120.0;46.100;-44.500;-94.200;976.2;8.0;48.94075;12.62467;378.7;74.2
20181213_154435;1.726;8.713;3.620;0.201;-0.068;-0.045;120.0;45.300;-44.600;-93.800;976.3;8.0;48.94075;12.62467;378.7;74.2
20181213_154435;2.557;9.572;6.208;0.311;-0.099;-0.096;120.0;44.200;-44.100;-94.200;976.3;8.0;48.94078;12.62495;378.7;77.2
20181213_154435;2.354;10.288;3.122;0.222;-0.076;-0.061;118.0;44.500;-43.600;-94.900;976.3;8.0;48.94078;12.62495;378.7;77.2
20181213_154435;2.176;10.700;0.656;-0.261;-0.209;-0.077;118.0;45.900;-43.900;-94.400;976.2;8.0;48.94078;12.62495;378.7;77.2
20181213_154435;2.696;9.963;4.291;-0.214;-0.047;-0.028;118.0;46.200;-44.300;-93.100;976.2;8.0;48.94078;12.62495;378.7;77.2
20181213_154435;3.290;10.262;5.830;0.248;-0.265;-0.070;118.0;45.400;-44.500;-91.700;976.2;8.0;48.94078;12.62495;378.7;77.2
20181213_154436;1.973;10.226;3.797;-0.199;-0.164;-0.051;116.0;44.500;-44.300;-91.100;976.2;8.0;48.94078;12.62495;378.7;77.2
20181213_154436;2.114;9.953;4.116;-0.026;-0.109;-0.059;113.0;44.000;-43.700;-91.100;976.2;8.0;48.94078;12.62495;378.7;77.2
20181213_154436;0.781;8.686;0.429;-0.226;-0.138;-0.045;113.0;44.000;-43.600;-91.100;976.2;8.0;48.94078;12.62495;378.7;77.2
20181213_154436;0.757;8.569;3.326;0.049;-0.062;-0.021;109.0;44.300;-43.600;-91.100;976.2;8.0;48.94078;12.62495;378.7;77.2
20181213_154436;0.790;8.773;2.859;-0.022;-0.034;0.044;107.0;44.500;-43.600;-90.900;976.2;8.0;48.94077;12.62525;378.8;79.8
20181213_154436;1.956;8.634;5.598;0.236;-0.112;-0.034;107.0;44.200;-43.600;-91.200;976.2;8.0;48.94077;12.62525;378.8;79.8
20181213_154436;1.190;9.642;3.831;0.008;-0.138;-0.020;107.0;44.100;-43.800;-91.200;976.2;8.0;48.94077;12.62525;378.8;79.8
20181213_154436;0.357;8.548;1.367;-0.213;0.010;0.067;108.0;43.800;-44.100;-91.500;976.2;8.0;48.94077;12.62525;378.8;79.8
20181213_154437;0.328;9.934;6.876;-0.176;-0.039;0.039;108.0;43.900;-44.300;-91.600;976.2;8.0;48.94077;12.62525;378.8;79.8
20181213_154437;0.314;7.987;0.515;0.397;0.027;-0.018;105.0;44.100;-44.400;-91.500;976.2;8.0;48.94077;12.62525;378.8;79.8
20181213_154437;0.460;8.129;2.363;-0.126;-0.057;-0.050;105.0;44.300;-44.500;-91.800;976.2;8.0;48.94077;12.62525;378.8;79.8
20181213_154437;1.695;9.053;8.591;0.286;0.080;-0.009;108.0;44.300;-44.600;-91.900;976.2;8.0;48.94077;12.62525;378.8;79.8
20181213_154437;0.836;9.194;4.269;0.137;-0.006;-0.012;108.0;44.200;-44.800;-92.300;976.2;8.0;48.94077;12.62525;378.8;79.8
20181213_154437;-0.022;8.059;2.416;-0.097;0.003;-0.017;108.0;43.500;-45.200;-92.800;976.2;8.0;48.94075;12.62555;378.9;78.3
20181213_154437;1.250;4.197;4.880;0.473;0.325;0.077;108.0;40.600;-48.400;-94.500;976.2;8.0;48.94075;12.62555;378.9;78.3
20181213_154437;2.265;12.225;7.793;-0.130;-0.440;0.030;110.0;42.000;-43.400;-81.900;976.2;8.0;48.94075;12.62555;378.9;78.3
20181213_154437;0.433;9.481;3.194;-0.266;0.139;0.038;110.0;49.600;-34.400;-91.600;976.2;8.0;48.94075;12.62555;378.9;78.3
20181213_154438;1.628;9.307;1.480;-0.136;0.026;-0.077;108.0;49.000;-42.500;-102.100;976.2;8.0;48.94075;12.62555;378.9;78.3
20181213_154438;0.630;9.819;1.415;0.007;-0.072;-0.045;108.0;54.000;-53.100;-98.300;976.2;8.0;48.94075;12.62555;378.9;78.3
20181213_154438;0.936;10.216;5.662;-0.152;0.020;-0.001;108.0;52.200;-47.700;-101.700;976.2;8.0;48.94075;12.62555;378.9;78.3
20181213_154438;1.121;10.140;3.611;-0.272;-0.050;-0.001;108.0;51.700;-63.000;-103.100;976.2;8.0;48.94075;12.62555;378.9;78.3
20181213_154438;0.081;9.460;2.629;-0.183;0.033;0.057;108.0;56.000;-50.200;-85.000;976.2;8.0;48.94075;12.62555;378.9;78.3
20181213_154438;0.057;8.933;3.412;0.245;-0.026;-0.064;106.0;47.900;-52.400;-90.500;976.2;8.0;48.94072;12.62584;379.0;77.6
20181213_154438;0.429;9.960;2.105;0.102;-0.054;0.066;106.0;51.700;-45.700;-81.500;976.2;8.0;48.94072;12.62584;379.0;77.6
20181213_154438;1.987;9.874;5.188;0.185;-0.069;-0.089;106.0;54.100;-37.500;-98.200;976.2;8.0;48.94072;12.62584;379.0;77.6
20181213_154438;1.441;8.349;4.796;0.094;0.029;-0.091;102.0;52.400;-46.900;-94.900;976.2;8.0;48.94072;12.62584;379.0;77.6
20181213_154439;0.024;9.797;2.557;-0.224;0.025;0.060;102.0;57.400;-55.900;-100.500;976.2;8.0;48.94072;12.62584;379.0;77.6
20181213_154439;0.417;10.003;6.706;0.090;0.071;0.030;95.0;57.700;-54.600;-96.500;976.2;8.0;48.94072;12.62584;379.0;77.6
20181213_154439;0.836;10.480;-3.096;-0.555;-0.415;-0.052;96.0;54.100;-55.400;-98.900;976.2;8.0;48.94072;12.62584;379.0;77.6
20181213_154439;2.967;7.444;0.541;-0.034;0.172;-0.059;96.0;48.200;-51.200;-89.100;976.2;8.0;48.94072;12.62584;379.0;77.6
20181213_154439;-0.062;7.803;9.541;0.409;-0.353;-0.043;115.0;46.600;-48.200;-89.200;976.2;8.0;48.94070;12.62614;379.1;78.8
20181213_154439;-0.797;11.663;3.441;-0.069;-0.108;-0.037;122.0;46.400;-48.300;-88.900;976.1;8.0;48.94070;12.62614;379.1;78.8
20181213_154439;-0.330;10.959;2.885;-0.265;0.037;0.078;122.0;45.500;-46.700;-89.100;976.1;8.0;48.94070;12.62614;379.1;78.8
20181213_154439;-1.061;7.774;3.742;0.103;-0.131;0.055;119.0;44.500;-46.000;-89.700;976.1;8.0;48.94070;12.62614;379.1;78.8
20181213_154439;0.187;8.344;1.458;0.239;0.052;-0.010;123.0;43.900;-45.700;-90.200;976.1;8.0;48.94070;12.62614;379.1;78.8
20181213_154440;0.053;8.430;2.955;-0.077;0.093;0.049;123.0;43.500;-45.600;-90.400;976.1;8.0;48.94070;12.62614;379.1;78.8
20181213_154440;0.045;9.735;4.393;-0.045;0.015;0.032;124.0;43.400;-45.600;-90.600;976.2;8.0;48.94070;12.62614;379.1;78.8
20181213_154440;0.824;10.087;3.805;-0.064;-0.114;-0.069;124.0;43.300;-45.400;-91.000;976.2;8.0;48.94070;12.62614;379.1;78.8
20181213_154440;-0.017;10.990;3.120;-0.100;0.061;0.037;126.0;43.400;-45.600;-91.200;976.2;8.0;48.94070;12.62614;379.1;78.8
20181213_154440;-0.515;10.494;4.492;-0.168;-0.166;0.005;124.0;43.500;-45.400;-91.500;976.2;8.0;48.94067;12.62644;379.1;80.4
20181213_154440;0.165;10.394;4.853;0.043;-0.032;0.046;124.0;43.200;-45.100;-91.400;976.2;8.0;48.94067;12.62644;379.1;80.4
20181213_154440;-0.781;9.429;1.760;0.014;-0.061;0.033;124.0;43.400;-45.100;-91.100;976.2;8.0;48.94067;12.62644;379.1;80.4
20181213_154440;0.038;8.354;4.638;0.153;-0.103;-0.023;124.0;43.300;-45.300;-91.100;976.2;8.0;48.94067;12.62644;379.1;80.4
20181213_154440;0.702;6.675;2.011;-0.198;0.098;-0.048;124.0;43.500;-45.700;-91.200;976.2;8.0;48.94067;12.62644;379.1;80.4
20181213_154441;0.462;7.743;3.096;0.204;0.033;-0.012;123.0;43.500;-45.800;-91.800;976.1;8.0;48.94067;12.62644;379.1;80.4
20181213_154441;0.352;8.483;1.602;-0.119;0.088;-0.027;123.0;43.300;-45.800;-91.800;976.1;8.0;48.94067;12.62644;379.1;80.4
20181213_154441;1.384;8.442;2.059;0.207;0.059;0.007;124.0;43.100;-45.700;-91.900;976.1;8.0;48.94067;12.62644;379.1;80.4
20181213_154441;0.189;9.338;3.524;0.086;-0.006;-0.017;125.0;43.200;-45.500;-91.800;976.1;8.0;48.94067;12.62644;379.1;80.4
20181213_154441;0.776;7.779;2.265;0.049;0.024;-0.048;125.0;43.600;-45.400;-91.900;976.1;8.0;48.94063;12.62675;379.1;82.0
20181213_154441;0.388;9.529;4.001;0.102;0.027;0.005;124.0;43.700;-45.500;-91.600;976.1;8.0;48.94063;12.62675;379.1;82.0
20181213_154441;-0.206;9.941;3.843;0.094;0.113;0.015;124.0;43.200;-45.600;-91.200;976.1;8.0;48.94063;12.62675;379.1;82.0
20181213_154441;0.309;9.977;3.079;-0.033;0.025;-0.017;125.0;42.900;-45.600;-91.300;976.1;8.0;48.94063;12.62675;379.1;82.0
20181213_154441;-0.527;10.353;3.060;-0.114;-0.100;0.029;126.0;43.200;-45.600;-91.500;976.1;8.0;48.94063;12.62675;379.1;82.0
20181213_154442;-0.189;8.612;3.922;-0.158;-0.133;0.013;126.0;43.500;-45.600;-91.500;976.1;8.0;48.94063;12.62675;379.1;82.0
20181213_154442;0.855;8.761;2.990;-0.057;0.065;0.004;123.0;43.700;-45.600;-91.200;976.1;8.0;48.94063;12.62675;379.1;82.0
20181213_154442;0.625;9.625;3.000;0.007;0.005;-0.040;123.0;43.800;-45.400;-91.400;976.1;8.0;48.94063;12.62675;379.1;82.0
20181213_154442;0.723;8.636;2.808;0.095;0.067;-0.041;123.0;43.900;-45.500;-91.200;976.1;8.0;48.94063;12.62675;379.1;82.0
20181213_154442;-0.362;9.931;2.555;-0.053;0.141;0.022;124.0;44.000;-45.500;-91.400;976.1;8.0;48.94060;12.62706;379.1;83.8
20181213_154442;-0.225;9.529;2.540;0.120;-0.014;0.001;124.0;44.000;-45.600;-91.300;976.1;8.0;48.94060;12.62706;379.1;83.8
20181213_154442;0.053;9.314;2.885;-0.035;0.115;-0.023;124.0;43.900;-45.800;-91.300;976.1;8.0;48.94060;12.62706;379.1;83.8
20181213_154442;0.326;8.710;4.868;-0.063;-0.031;-0.009;126.0;44.000;-45.900;-91.200;976.1;8.0;48.94060;12.62706;379.1;83.8
20181213_154443;0.043;9.105;2.820;0.105;-0.004;0.002;125.0;44.100;-45.900;-91.100;976.1;8.0;48.94060;12.62706;379.1;83.8
20181213_154443;-0.017;9.460;2.830;-0.085;-0.034;-0.023;125.0;44.000;-45.800;-91.300;976.1;8.0;48.94060;12.62706;379.1;83.8
20181213_154443;-0.134;8.172;3.766;-0.086;0.077;0.073;126.0;43.800;-45.700;-91.400;976.1;8.0;48.94060;12.62706;379.1;83.8
20181213_154443;-0.002;8.490;3.608;0.079;-0.049;-0.023;126.0;43.800;-45.800;-91.400;976.1;8.0;48.94060;12.62706;379.1;83.8
20181213_154443;-0.079;9.709;5.217;-0.012;-0.082;-0.030;125.0;43.700;-45.800;-91.600;976.1;8.0;48.94060;12.62706;379.1;83.8
20181213_154443;-0.381;9.259;3.201;0.052;0.001;0.045;126.0;43.600;-45.900;-91.800;976.1;8.0;48.94056;12.62737;379.1;85.3
20181213_154443;-0.735;9.297;4.020;-0.019;-0.168;-0.006;126.0;43.600;-45.900;-91.900;976.1;8.0;48.94056;12.62737;379.1;85.3
20181213_154443;-0.314;8.617;4.130;-0.036;0.086;0.076;123.0;43.600;-45.700;-91.400;976.1;8.0;48.94056;12.62737;379.1;85.3
20181213_154443;0.139;8.164;3.108;0.078;0.175;0.002;125.0;43.700;-45.800;-91.200;976.1;8.0;48.94056;12.62737;379.1;85.3
20181213_154444;0.309;10.149;4.054;0.048;-0.025;-0.016;125.0;43.500;-45.800;-91.400;976.1;8.0;48.94056;12.62737;379.1;85.3
20181213_154444;-0.012;9.321;2.559;-0.285;0.006;0.022;123.0;43.700;-45.800;-91.700;976.1;8.0;48.94056;12.62737;379.1;85.3
20181213_154444;-0.644;10.008;2.442;-0.050;-0.075;0.028;123.0;43.600;-45.600;-91.800;976.1;8.0;48.94056;12.62737;379.1;85.3
20181213_154444;1.080;9.290;3.558;0.016;0.135;0.006;123.0;43.400;-45.600;-91.600;976.1;8.0;48.94056;12.62737;379.1;85.3
20181213_154444;-0.541;9.654;3.630;0.058;0.086;0.060;123.0;43.100;-45.300;-91.300;976.1;8.0;48.94052;12.62770;379.2;87.4
20181213_154444;-0.486;8.837;2.775;0.042;-0.266;-0.034;123.0;42.900;-44.800;-91.200;976.1;8.0;48.94052;12.62770;379.2;87.4
20181213_154444;0.395;9.232;5.064;0.120;0.120;0.004;124.0;43.000;-44.400;-91.200;976.1;8.0;48.94052;12.62770;379.2;87.4
20181213_154444;-0.888;8.835;5.033;-0.025;0.198;0.115;125.0;43.000;-44.300;-91.000;976.0;8.0;48.94052;12.62770;379.2;87.4
20181213_154444;0.062;9.259;5.059;0.067;-0.205;-0.058;125.0;43.000;-44.800;-91.100;976.0;8.0;48.94052;12.62770;379.2;87.4
20181213_154445;0.259;8.382;2.864;0.047;-0.095;-0.037;124.0;42.800;-44.900;-91.400;976.0;8.0;48.94052;12.62770;379.2;87.4
20181213_154445;-0.271;9.223;4.303;0.025;0.054;-0.052;124.0;43.000;-45.100;-91.700;976.0;8.0;48.94052;12.62770;379.2;87.4
20181213_154445;0.022;8.962;3.776;-0.030;0.010;0.008;125.0;43.000;-44.900;-91.400;976.0;8.0;48.94052;12.62770;379.2;87.4
20181213_154445;-0.285;9.855;2.899;0.117;0.093;0.018;124.0;42.900;-44.600;-91.200;976.0;8.0;48.94052;12.62770;379.2;87.4
20181213_154445;-0.302;8.239;2.962;-0.143;-0.128;0.035;124.0;42.600;-44.400;-91.000;976.0;8.0;48.94049;12.62803;379.2;89.1
20181213_154445;-0.160;7.870;3.096;0.057;-0.109;-0.058;123.0;42.700;-44.600;-91.600;976.0;8.0;48.94049;12.62803;379.2;89.1
20181213_154445;-0.261;9.249;2.897;-0.030;-0.114;-0.032;123.0;42.900;-44.900;-91.900;976.0;8.0;48.94049;12.62803;379.2;89.1
20181213_154445;0.227;8.768;2.797;-0.037;0.009;0.051;123.0;43.000;-45.100;-91.800;976.0;8.0;48.94049;12.62803;379.2;89.1
20181213_154445;0.053;9.570;4.808;-0.111;0.044;-0.025;123.0;42.900;-45.200;-91.700;976.0;8.0;48.94049;12.62803;379.2;89.1
20181213_154446;0.225;8.284;4.010;0.052;0.175;0.003;123.0;43.100;-45.400;-91.700;976.0;8.0;48.94049;12.62803;379.2;89.1
20181213_154446;-0.443;9.093;3.455;-0.027;0.063;0.029;124.0;43.100;-45.300;-91.900;976.0;8.0;48.94049;12.62803;379.2;89.1
20181213_154446;-0.084;10.578;2.629;-0.060;0.056;0.008;123.0;43.100;-45.200;-92.000;976.0;8.0;48.94049;12.62803;379.2;89.1
20181213_154446;0.045;8.176;1.767;0.017;0.104;0.033;123.0;43.000;-45.000;-91.900;976.0;8.0;48.94049;12.62803;379.2;89.1
20181213_154446;0.670;8.313;3.163;-0.143;-0.067;-0.032;122.0;42.900;-45.100;-91.900;976.0;8.0;48.94046;12.62837;379.3;90.8
20181213_154446;0.093;9.146;4.255;-0.065;-0.061;0.082;122.0;43.300;-45.100;-91.700;976.0;8.0;48.94046;12.62837;379.3;90.8
20181213_154446;-0.421;7.714;3.342;0.090;0.011;-0.009;121.0;43.400;-45.200;-91.800;976.0;8.0;48.94046;12.62837;379.3;90.8
20181213_154446;0.077;8.794;3.682;-0.075;-0.065;-0.065;120.0;43.400;-45.400;-91.700;976.0;8.0;48.94046;12.62837;379.3;90.8
20181213_154446;-0.266;8.643;4.006;0.058;0.075;0.071;120.0;43.300;-45.500;-91.200;976.0;8.0;48.94046;12.62837;379.3;90.8
20181213_154447;-0.148;9.000;3.704;-0.003;0.172;0.058;73.0;43.900;-45.700;-90.800;976.0;8.0;48.94046;12.62837;379.3;90.8
20181213_154447;0.034;8.921;5.270;0.063;0.181;0.029;66.0;44.100;-45.900;-91.100;976.0;8.0;48.94046;12.62837;379.3;90.8
20181213_154447;0.077;9.462;3.814;-0.026;0.111;0.035;66.0;44.500;-46.100;-91.700;976.0;8.0;48.94046;12.62837;379.3;90.8
20181213_154447;0.575;8.136;3.311;0.006;-0.037;-0.048;46.0;44.400;-45.900;-92.000;976.0;8.0;48.94046;12.62837;379.3;90.8
20181213_154447;0.297;7.892;2.914;0.069;-0.106;0.026;81.0;44.300;-45.500;-92.100;976.0;8.0;48.94043;12.62872;379.4;91.4
20181213_154447;0.057;8.986;3.536;-0.009;-0.101;0.008;81.0;44.000;-45.100;-91.900;976.0;8.0;48.94043;12.62872;379.4;91.4
20181213_154447;-0.153;8.746;1.666;-0.012;-0.213;-0.011;84.0;44.000;-44.800;-91.600;976.0;8.0;48.94043;12.62872;379.4;91.4
20181213_154447;0.060;9.206;3.345;-0.050;-0.075;-0.003;84.0;44.000;-44.800;-91.700;976.0;8.0;48.94043;12.62872;379.4;91.4
20181213_154447;-0.290;9.055;3.055;0.082;-0.138;-0.012;83.0;44.000;-44.800;-91.900;976.0;8.0;48.94043;12.62872;379.4;91.4
20181213_154448;0.053;9.484;2.138;0.011;-0.161;-0.037;85.0;43.900;-45.200;-91.900;976.0;8.0;48.94043;12.62872;379.4;91.4
20181213_154448;0.251;8.600;3.386;0.022;-0.217;-0.021;85.0;44.000;-45.200;-91.800;975.9;8.0;48.94043;12.62872;379.4;91.4
20181213_154448;0.148;7.623;2.339;-0.023;-0.064;-0.033;84.0;44.000;-45.200;-91.600;975.9;8.0;48.94043;12.62872;379.4;91.4
20181213_154448;-0.400;9.611;4.681;-0.061;-0.134;-0.034;87.0;43.900;-45.200;-91.800;975.9;8.0;48.94043;12.62872;379.4;91.4
20181213_154448;0.062;8.119;3.048;0.006;-0.133;-0.014;87.0;43.900;-45.400;-91.900;975.9;8.0;48.94040;12.62907;379.5;93.9
20181213_154448;-0.110;8.660;1.729;-0.026;-0.064;-0.021;89.0;44.000;-45.500;-91.800;975.9;8.0;48.94040;12.62907;379.5;93.9
20181213_154448;0.132;9.237;1.681;-0.106;-0.089;-0.020;89.0;43.800;-45.700;-91.900;975.9;8.0;48.94040;12.62907;379.5;93.9
20181213_154448;-0.148;7.566;3.517;0.084;-0.262;-0.054;95.0;43.400;-45.700;-91.800;975.9;8.0;48.94040;12.62907;379.5;93.9
20181213_154448;0.927;7.724;5.253;0.173;-0.040;-0.054;103.0;43.200;-45.800;-91.700;975.9;8.0;48.94040;12.62907;379.5;93.9
20181213_154449;-0.187;8.301;4.276;0.114;-0.070;-0.039;103.0;43.100;-45.900;-91.700;975.9;8.0;48.94040;12.62907;379.5;93.9
20181213_154449;0.055;9.034;3.620;-0.116;0.139;0.045;106.0;43.400;-46.100;-91.500;975.9;8.0;48.94040;12.62907;379.5;93.9
20181213_154449;-0.385;8.682;3.589;-0.119;0.121;0.025;112.0;43.300;-46.100;-91.400;975.9;8.0;48.94040;12.62907;379.5;93.9
20181213_154449;0.338;9.843;3.711;0.028;-0.134;-0.024;112.0;43.400;-46.000;-91.800;975.9;8.0;48.94040;12.62907;379.5;93.9
20181213_154449;-0.326;9.797;3.493;-0.099;0.014;-0.017;116.0;43.200;-45.800;-92.000;975.9;8.0;48.94037;12.62943;379.6;95.4
20181213_154449;0.065;8.821;3.299;0.022;-0.041;0.007;116.0;43.200;-45.800;-92.000;975.9;8.0;48.94037;12.62943;379.6;95.4
20181213_154449;-0.450;10.520;2.215;-0.376;0.153;0.077;116.0;43.200;-45.800;-91.900;975.9;8.0;48.94037;12.62943;379.6;95.4
20181213_154449;0.045;6.512;7.619;-0.063;0.298;0.071;116.0;43.400;-45.900;-92.100;975.9;8.0;48.94037;12.62943;379.6;95.4
20181213_154449;-0.297;10.556;6.553;0.162;0.034;0.003;120.0;43.300;-45.900;-92.400;975.9;8.0;48.94037;12.62943;379.6;95.4
20181213_154450;-0.397;10.868;4.662;0.207;0.011;0.028;118.0;43.400;-45.800;-92.200;975.9;8.0;48.94037;12.62943;379.6;95.4
20181213_154450;0.558;9.249;3.721;-0.110;0.024;-0.018;118.0;43.400;-45.800;-91.800;975.9;8.0;48.94037;12.62943;379.6;95.4
20181213_154450;-1.101;8.471;3.797;-0.028;-0.103;-0.053;120.0;43.400;-45.800;-91.700;975.9;8.0;48.94037;12.62943;379.6;95.4
20181213_154450;0.127;8.095;5.057;-0.041;-0.028;0.054;120.0;43.100;-45.800;-91.700;975.9;8.0;48.94037;12.62943;379.6;95.4
20181213_154450;0.721;9.845;4.585;0.006;0.080;-0.012;120.0;43.000;-45.800;-91.900;975.8;8.0;48.94034;12.62979;379.7;96.7
20181213_154450;-0.287;9.661;2.818;-0.096;-0.017;0.012;118.0;42.900;-45.600;-91.800;975.8;8.0;48.94034;12.62979;379.7;96.7
20181213_154450;-0.883;9.474;3.895;-0.103;0.103;0.047;118.0;42.800;-45.500;-91.800;975.8;8.0;48.94034;12.62979;379.7;96.7
20181213_154450;-0.646;7.623;3.687;0.033;0.086;-0.003;122.0;42.700;-45.500;-91.900;975.8;8.0;48.94034;12.62979;379.7;96.7
20181213_154450;0.062;9.783;3.788;-0.047;-0.119;0.013;124.0;42.600;-45.600;-92.000;975.8;8.0;48.94034;12.62979;379.7;96.7
20181213_154451;-0.816;9.785;4.030;-0.001;-0.025;0.011;124.0;42.700;-45.600;-92.000;975.8;8.0;48.94034;12.62979;379.7;96.7
20181213_154451;0.529;10.015;4.662;-0.026;0.143;0.021;124.0;42.700;-45.600;-92.100;975.8;8.0;48.94034;12.62979;379.7;96.7
20181213_154451;0.457;10.765;3.314;0.099;0.107;0.013;123.0;42.600;-45.600;-91.900;975.8;8.0;48.94034;12.62979;379.7;96.7
20181213_154451;-0.567;9.055;4.245;-0.018;-0.035;0.033;123.0;42.300;-45.600;-91.900;975.8;8.0;48.94034;12.62979;379.7;96.7
20181213_154451;-0.793;7.583;4.123;-0.077;0.018;-0.045;124.0;42.400;-45.500;-92.000;975.8;8.0;48.94031;12.63016;379.8;98.0
20181213_154451;0.129;9.527;2.672;0.056;-0.029;-0.004;124.0;42.400;-45.400;-92.300;975.8;8.0;48.94031;12.63016;379.8;98.0
20181213_154451;0.065;8.744;3.826;-0.032;-0.047;-0.003;124.0;42.700;-45.500;-92.400;975.8;8.0;48.94031;12.63016;379.8;98.0
20181213_154451;0.613;9.433;2.179;0.109;-0.040;0.005;125.0;42.800;-45.500;-92.300;975.8;8.0;48.94031;12.63016;379.8;98.0
20181213_154451;0.108;9.891;2.306;-0.004;-0.081;0.024;125.0;42.700;-45.500;-91.900;975.8;8.0;48.94031;12.63016;379.8;98.0
20181213_154452;-0.172;8.885;4.887;0.063;0.099;-0.063;125.0;42.700;-45.300;-91.700;975.8;8.0;48.94031;12.63016;379.8;98.0
20181213_154452;-0.069;8.141;4.473;0.096;-0.053;0.008;125.0;42.900;-45.300;-91.600;975.8;8.0;48.94031;12.63016;379.8;98.0
20181213_154452;0.491;8.121;3.982;0.127;-0.042;-0.018;125.0;43.000;-45.400;-91.500;975.8;8.0;48.94031;12.63016;379.8;98.0
20181213_154452;-0.644;8.907;3.589;0.098;0.059;0.001;123.0;43.300;-45.400;-91.600;975.7;8.0;48.94031;12.63016;379.8;98.0
20181213_154452;0.474;9.060;2.933;-0.036;0.021;-0.040;123.0;43.400;-45.300;-91.700;975.8;8.0;48.94028;12.63053;379.9;99.1
20181213_154452;0.208;9.129;4.216;0.029;0.093;0.033;125.0;43.100;-45.200;-91.700;975.7;8.0;48.94028;12.63053;379.9;99.1
20181213_154452;-0.544;9.127;3.024;0.058;-0.009;-0.011;125.0;43.000;-45.200;-91.700;975.7;8.0;48.94028;12.63053;379.9;99.1
20181213_154452;0.706;9.486;3.251;0.033;-0.055;0.033;125.0;43.000;-45.100;-91.600;975.7;8.0;48.94028;12.63053;379.9;99.1
20181213_154452;0.180;9.421;5.220;0.047;-0.036;0.026;125.0;42.900;-45.100;-91.500;975.7;8.0;48.94028;12.63053;379.9;99.1
20181213_154453;0.029;8.703;4.006;0.038;-0.051;-0.051;125.0;43.000;-45.200;-91.600;975.7;8.0;48.94028;12.63053;379.9;99.1
20181213_154453;0.491;9.134;3.177;0.019;0.114;0.037;125.0;43.100;-45.300;-91.500;975.7;8.0;48.94028;12.63053;379.9;99.1
20181213_154453;-0.393;7.937;4.054;0.004;0.055;-0.020;125.0;43.200;-45.200;-91.500;975.7;8.0;48.94028;12.63053;379.9;99.1
20181213_154453;-0.323;9.740;2.753;-0.020;-0.019;-0.047;125.0;43.200;-45.100;-91.500;975.7;8.0;48.94028;12.63053;379.9;99.1
20181213_154453;0.101;8.844;4.561;-0.095;0.011;0.033;125.0;43.300;-44.800;-91.400;975.7;8.0;48.94025;12.63091;380.0;100.1
20181213_154453;0.694;9.151;5.461;-0.134;-0.064;0.041;124.0;43.600;-44.500;-91.400;975.7;8.0;48.94025;12.63091;380.0;100.1
20181213_154453;0.038;9.831;6.455;0.127;-0.014;-0.017;124.0;43.500;-44.300;-91.600;975.7;8.0;48.94025;12.63091;380.0;100.1
20181213_154453;0.299;9.319;2.428;0.088;0.016;-0.028;120.0;43.300;-44.400;-92.000;975.7;8.0;48.94025;12.63091;380.0;100.1
20181213_154453;-0.891;9.038;4.080;0.058;0.125;-0.007;116.0;43.600;-44.400;-92.000;975.7;8.0;48.94025;12.63091;380.0;100.1
20181213_154454;-0.057;10.130;3.548;-0.058;-0.098;-0.004;116.0;43.800;-44.500;-91.800;975.7;8.0;48.94025;12.63091;380.0;100.1
20181213_154454;0.527;9.366;4.554;-0.038;-0.034;0.007;115.0;44.000;-44.700;-91.600;975.7;8.0;48.94025;12.63091;380.0;100.1
20181213_154454;0.201;9.745;4.652;0.067;0.000;0.045;115.0;43.800;-44.800;-91.400;975.7;8.0;48.94025;12.63091;380.0;100.1
20181213_154454;-0.402;10.377;4.259;0.143;-0.186;-0.009;116.0;43.900;-44.700;-91.500;975.7;8.0;48.94025;12.63091;380.0;100.1
20181213_154454;0.048;9.766;6.206;0.052;0.036;0.024;116.0;43.800;-44.700;-91.400;975.7;8.0;48.94022;12.63129;380.1;101.0
20181213_154454;0.067;8.045;4.054;0.122;-0.004;-0.020;116.0;43.800;-44.600;-91.400;975.7;8.0;48.94022;12.63129;380.1;101.0
20181213_154454;-0.646;9.299;2.181;-0.121;-0.079;0.032;120.0;43.800;-44.700;-91.400;975.7;8.0;48.94022;12.63129;380.1;101.0
20181213_154454;0.405;8.002;1.540;-0.114;0.022;-0.025;120.0;44.200;-44.800;-91.400;975.7;8.0;48.94022;12.63129;380.1;101.0
20181213_154455;0.544;9.012;3.357;-0.003;-0.135;-0.003;126.0;44.300;-44.900;-91.300;975.6;8.0;48.94022;12.63129;380.1;101.0
20181213_154455;-0.646;9.283;4.073;-0.129;-0.002;0.031;126.0;43.900;-44.700;-91.200;975.6;8.0;48.94022;12.63129;380.1;101.0
20181213_154455;0.441;8.155;3.508;-0.041;0.018;-0.007;120.0;43.800;-44.600;-91.300;975.6;8.0;48.94022;12.63129;380.1;101.0
20181213_154455;-0.443;9.852;3.479;0.024;-0.115;-0.036;120.0;43.800;-44.700;-91.300;975.6;8.0;48.94022;12.63129;380.1;101.0
20181213_154455;0.649;8.904;2.322;0.042;0.131;0.006;118.0;44.000;-44.600;-91.400;975.6;8.0;48.94019;12.63167;380.3;102.3
20181213_154455;-0.031;7.674;2.318;0.127;-0.065;0.032;118.0;43.900;-44.500;-91.700;975.6;8.0;48.94019;12.63167;380.3;102.3
20181213_154455;-0.012;9.235;2.878;0.013;-0.052;0.024;120.0;44.000;-44.600;-91.700;975.6;8.0;48.94019;12.63167;380.3;102.3
20181213_154455;0.579;8.457;3.163;0.055;0.143;0.029;122.0;44.000;-44.700;-91.500;975.6;8.0;48.94019;12.63167;380.3;102.3
20181213_154455;-0.520;9.508;3.752;-0.164;-0.076;0.066;122.0;44.100;-44.700;-91.500;975.6;8.0;48.94019;12.63167;380.3;102.3
20181213_154456;-1.116;9.084;3.136;0.247;0.082;-0.012;120.0;44.300;-44.900;-91.600;975.6;8.0;48.94019;12.63167;380.3;102.3
20181213_154456;-0.079;9.302;1.947;0.099;-0.119;-0.001;122.0;44.200;-44.900;-91.600;975.6;8.0;48.94019;12.63167;380.3;102.3
20181213_154456;-0.649;9.074;4.599;0.122;0.069;-0.001;122.0;44.100;-45.100;-91.400;975.6;8.0;48.94019;12.63167;380.3;102.3
20181213_154456;-0.575;9.663;2.854;0.066;-0.031;-0.003;122.0;44.100;-45.000;-91.400;975.5;8.0;48.94019;12.63167;380.3;102.3
20181213_154456;-0.393;10.365;3.036;-0.179;-0.029;0.067;122.0;44.000;-44.900;-91.400;975.6;8.0;48.94016;12.63206;380.4;102.8
20181213_154456;0.575;9.663;2.234;0.071;-0.096;0.062;124.0;43.700;-44.900;-91.800;975.5;8.0;48.94016;12.63206;380.4;102.8
20181213_154456;0.304;7.590;3.235;-0.151;-0.005;0.041;124.0;43.800;-45.000;-91.900;975.6;8.0;48.94016;12.63206;380.4;102.8
20181213_154456;-0.378;8.935;4.669;-0.033;-0.056;0.005;124.0;43.800;-45.100;-92.100;975.5;8.0;48.94016;12.63206;380.4;102.8
20181213_154456;-0.915;10.343;4.319;0.046;-0.061;-0.024;124.0;43.800;-45.000;-92.000;975.5;8.0;48.94016;12.63206;380.4;102.8
20181213_154457;0.632;8.866;5.861;0.080;-0.092;-0.087;124.0;43.700;-44.900;-92.000;975.5;8.0;48.94016;12.63206;380.4;102.8
20181213_154457;0.644;9.098;4.702;-0.048;-0.026;0.041;124.0;43.600;-44.800;-91.800;975.5;8.0;48.94016;12.63206;380.4;102.8
20181213_154457;-0.230;7.868;1.470;-0.128;-0.100;0.021;124.0;43.700;-44.900;-91.900;975.5;8.0;48.94016;12.63206;380.4;102.8
20181213_154457;0.697;8.387;4.619;-0.008;0.025;-0.002;124.0;43.800;-45.100;-92.000;975.5;8.0;48.94016;12.63206;380.4;102.8
20181213_154457;0.479;9.687;2.907;-0.125;-0.039;-0.036;126.0;43.700;-45.100;-92.100;975.5;8.0;48.94016;12.63206;380.4;102.8
20181213_154457;-1.104;8.524;5.188;-0.022;-0.007;0.001;126.0;43.700;-44.900;-92.200;975.5;8.0;48.94014;12.63245;380.5;103.5
20181213_154457;-0.024;9.208;4.317;-0.086;-0.078;0.015;126.0;43.500;-44.800;-92.200;975.5;8.0;48.94014;12.63245;380.5;103.5
20181213_154457;0.797;9.699;3.910;0.027;0.013;0.042;126.0;43.600;-44.700;-92.400;975.5;8.0;48.94014;12.63245;380.5;103.5
20181213_154457;0.383;9.287;4.429;0.159;-0.056;0.028;126.0;43.600;-44.600;-92.500;975.5;8.0;48.94014;12.63245;380.5;103.5
20181213_154457;0.359;9.891;4.537;0.099;0.018;-0.072;126.0;43.600;-44.700;-92.700;975.5;8.0;48.94014;12.63245;380.5;103.5
20181213_154458;-0.400;10.259;3.354;-0.112;-0.060;0.008;126.0;43.600;-44.700;-92.600;975.5;8.0;48.94014;12.63245;380.5;103.5
20181213_154458;0.247;8.478;3.084;0.068;0.097;-0.022;124.0;43.400;-45.000;-92.600;975.5;8.0;48.94014;12.63245;380.5;103.5
20181213_154458;-1.099;8.634;2.282;0.013;-0.137;0.040;124.0;43.200;-45.100;-92.200;975.5;8.0;48.94014;12.63245;380.5;103.5
20181213_154458;-0.144;8.011;1.585;-0.033;-0.022;-0.054;124.0;43.200;-45.100;-92.300;975.5;8.0;48.94014;12.63245;380.5;103.5
20181213_154458;0.053;8.145;3.704;-0.209;-0.078;-0.014;122.0;43.200;-45.000;-92.300;975.5;8.0;48.94011;12.63285;380.7;104.1
20181213_154458;-0.256;8.579;5.907;0.091;0.115;0.085;122.0;43.400;-45.000;-92.400;975.5;8.0;48.94011;12.63285;380.7;104.1
20181213_154458;-1.130;8.622;4.125;0.013;-0.103;-0.001;122.0;43.300;-45.100;-92.200;975.5;8.0;48.94011;12.63285;380.7;104.1
20181213_154458;-0.438;9.070;4.690;0.063;0.105;0.009;122.0;43.000;-45.000;-92.100;975.5;8.0;48.94011;12.63285;380.7;104.1
20181213_154459;-1.817;8.471;3.816;0.066;-0.145;0.038;122.0;43.000;-45.000;-92.000;975.5;8.0;48.94011;12.63285;380.7;104.1
20181213_154459;0.184;8.885;2.978;0.025;0.179;-0.019;122.0;42.900;-45.000;-92.000;975.5;8.0;48.94011;12.63285;380.7;104.1
20181213_154459;0.517;8.402;2.701;-0.023;0.026;-0.011;124.0;43.100;-45.100;-92.200;975.5;8.0;48.94011;12.63285;380.7;104.1
20181213_154459;-0.570;8.809;4.360;-0.041;0.008;0.011;124.0;43.200;-45.000;-92.100;975.5;8.0;48.94011;12.63285;380.7;104.1
20181213_154459;-0.211;8.097;3.338;0.021;0.019;0.022;122.0;43.300;-44.900;-92.100;975.5;8.0;48.94009;12.63324;380.8;104.6
20181213_154459;0.464;9.512;4.195;-0.006;0.026;-0.039;124.0;43.100;-44.600;-92.200;975.5;8.0;48.94009;12.63324;380.8;104.6
20181213_154459;0.476;9.843;3.376;0.011;0.038;-0.020;124.0;42.900;-44.600;-92.500;975.5;8.0;48.94009;12.63324;380.8;104.6
20181213_154459;-0.845;9.405;3.627;-0.053;-0.037;0.001;122.0;42.900;-44.600;-92.500;975.5;8.0;48.94009;12.63324;380.8;104.6
20181213_154459;0.472;9.048;5.832;0.095;0.137;-0.012;122.0;43.200;-44.700;-92.100;975.5;8.0;48.94009;12.63324;380.8;104.6
20181213_154500;-0.196;10.224;2.938;-0.108;-0.111;0.043;122.0;43.300;-44.600;-91.900;975.4;8.0;48.94009;12.63324;380.8;104.6
20181213_154500;-0.623;9.225;3.153;0.003;-0.000;0.005;122.0;43.400;-44.500;-92.000;975.4;8.0;48.94009;12.63324;380.8;104.6
20181213_154500;-0.924;8.679;5.729;-0.003;-0.065;0.029;122.0;43.000;-44.400;-92.300;975.4;8.0;48.94009;12.63324;380.8;104.6
20181213_154500;0.469;8.504;3.297;0.188;-0.073;-0.053;122.0;42.900;-44.500;-92.300;975.4;8.0;48.94009;12.63324;380.8;104.6
20181213_154500;-0.366;9.139;2.655;-0.131;0.015;0.078;122.0;43.000;-44.500;-92.200;975.4;8.0;48.94007;12.63364;381.0;105.0
20181213_154500;-0.002;7.659;5.452;0.054;-0.048;0.022;122.0;43.000;-44.400;-92.200;975.4;8.0;48.94007;12.63364;381.0;105.0
20181213_154500;-2.162;10.769;4.087;-0.232;-0.089;0.033;122.0;43.000;-44.500;-92.100;975.4;8.0;48.94007;12.63364;381.0;105.0
20181213_154500;-0.587;7.291;3.445;0.018;0.028;0.062;122.0;42.700;-44.400;-92.100;975.4;8.0;48.94007;12.63364;381.0;105.0
20181213_154500;-0.146;8.928;4.444;-0.015;0.081;-0.033;123.0;42.900;-44.500;-92.100;975.4;8.0;48.94007;12.63364;381.0;105.0
20181213_154501;-0.661;9.309;3.467;-0.093;-0.044;-0.029;124.0;43.000;-44.600;-92.100;975.4;8.0;48.94007;12.63364;381.0;105.0
20181213_154501;0.608;9.917;5.057;-0.021;0.091;0.004;124.0;43.500;-44.700;-92.200;975.4;8.0;48.94007;12.63364;381.0;105.0
20181213_154501;-0.089;9.512;4.470;0.012;-0.114;0.016;124.0;43.500;-44.700;-92.300;975.4;8.0;48.94007;12.63364;381.0;105.0
20181213_154501;-0.479;9.000;3.189;-0.049;-0.029;-0.035;124.0;43.600;-44.500;-92.300;975.3;8.0;48.94007;12.63364;381.0;105.0
20181213_154501;0.563;8.366;4.396;-0.005;0.058;-0.017;124.0;43.300;-44.500;-92.700;975.3;8.0;48.94005;12.63404;381.2;105.1
20181213_154501;-0.283;8.313;3.213;0.085;0.040;0.065;124.0;43.300;-45.000;-93.000;975.3;8.0;48.94005;12.63404;381.2;105.1
20181213_154501;-0.977;10.384;5.751;0.104;0.006;0.008;124.0;43.300;-45.400;-92.900;975.3;8.0;48.94005;12.63404;381.2;105.1
20181213_154501;-0.065;9.278;2.928;-0.053;-0.189;0.005;123.0;43.400;-45.400;-92.400;975.3;8.0;48.94005;12.63404;381.2;105.1
20181213_154501;0.338;9.908;4.204;-0.040;-0.072;0.106;123.0;43.200;-44.800;-91.900;975.3;8.0;48.94005;12.63404;381.2;105.1
20181213_154502;0.771;8.028;3.498;0.060;0.062;-0.036;120.0;42.900;-44.500;-92.100;975.3;8.0;48.94005;12.63404;381.2;105.1
20181213_154502;-0.148;9.781;3.445;-0.111;0.024;-0.043;122.0;42.600;-44.400;-92.200;975.3;8.0;48.94005;12.63404;381.2;105.1
20181213_154502;0.735;8.552;3.994;-0.066;0.037;-0.034;122.0;42.500;-44.300;-92.500;975.4;8.0;48.94005;12.63404;381.2;105.1
20181213_154502;0.280;8.837;3.656;0.047;0.001;0.011;122.0;42.700;-44.200;-92.600;975.4;8.0;48.94005;12.63404;381.2;105.1
20181213_154502;0.115;9.613;5.593;0.029;-0.022;-0.034;120.0;42.800;-44.200;-92.700;975.4;8.0;48.94003;12.63444;381.3;105.3
20181213_154502;-0.041;9.117;3.433;-0.078;-0.047;0.001;120.0;43.000;-44.300;-92.700;975.4;8.0;48.94003;12.63444;381.3;105.3
20181213_154502;-0.172;8.612;3.587;0.072;0.106;0.044;122.0;42.800;-44.300;-92.600;975.4;8.0;48.94003;12.63444;381.3;105.3
20181213_154502;-0.898;10.422;3.953;0.091;-0.001;0.022;122.0;42.900;-44.200;-92.600;975.3;8.0;48.94003;12.63444;381.3;105.3
20181213_154502;-0.663;8.852;3.570;-0.014;-0.039;-0.034;122.0;42.900;-44.100;-92.700;975.3;8.0;48.94003;12.63444;381.3;105.3
20181213_154503;-0.374;7.872;5.576;-0.016;0.018;0.048;123.0;43.100;-44.100;-92.600;975.3;8.0;48.94003;12.63444;381.3;105.3
20181213_154503;-1.420;9.761;3.105;-0.122;-0.024;0.032;123.0;43.300;-44.100;-92.400;975.4;8.0;48.94003;12.63444;381.3;105.3
20181213_154503;1.149;9.881;4.314;0.003;0.064;-0.092;120.0;43.500;-44.000;-92.400;975.3;8.0;48.94003;12.63444;381.3;105.3
20181213_154503;0.397;9.196;4.032;-0.086;-0.040;-0.031;120.0;43.300;-43.900;-92.500;975.3;8.0;48.94003;12.63444;381.3;105.3
20181213_154503;0.675;8.619;4.477;-0.072;0.060;-0.079;115.0;43.200;-44.000;-92.600;975.3;8.0;48.94001;12.63484;381.5;105.5
20181213_154503;-0.828;9.687;3.263;-0.142;-0.098;0.027;113.0;42.900;-44.000;-92.800;975.3;8.0;48.94001;12.63484;381.5;105.5
20181213_154503;-1.262;9.168;3.050;-0.094;-0.125;0.086;113.0;43.100;-44.000;-92.900;975.3;8.0;48.94001;12.63484;381.5;105.5
20181213_154503;0.766;9.275;4.808;0.005;-0.020;-0.095;115.0;43.100;-44.100;-92.900;975.3;8.0;48.94001;12.63484;381.5;105.5
20181213_154503;0.867;9.900;4.918;0.032;-0.034;-0.010;119.0;42.900;-44.300;-92.700;975.3;8.0;48.94001;12.63484;381.5;105.5
20181213_154504;0.053;8.928;3.371;0.066;-0.034;0.062;119.0;42.700;-44.300;-92.800;975.3;8.0;48.94001;12.63484;381.5;105.5
20181213_154504;-0.242;8.612;4.580;-0.022;0.040;0.060;123.0;42.700;-44.300;-92.900;975.3;8.0;48.94001;12.63484;381.5;105.5
20181213_154504;0.022;8.557;3.084;0.099;0.041;-0.023;123.0;42.800;-44.600;-92.900;975.3;8.0;48.94001;12.63484;381.5;105.5
20181213_154504;-0.438;9.781;3.900;-0.055;-0.019;0.037;123.0;42.800;-44.500;-92.500;975.2;8.0;48.94001;12.63484;381.5;105.5
20181213_154504;-1.180;7.348;4.274;0.107;-0.033;0.015;124.0;42.700;-44.400;-92.600;975.2;8.0;48.94000;12.63524;381.7;105.5
20181213_154504;0.127;8.229;2.574;-0.079;0.070;-0.050;124.0;42.600;-44.400;-92.700;975.2;8.0;48.94000;12.63524;381.7;105.5
20181213_154504;-0.012;8.959;3.781;-0.102;-0.028;0.040;124.0;42.600;-44.300;-92.500;975.2;8.0;48.94000;12.63524;381.7;105.5
20181213_154504;-1.092;10.616;3.371;0.066;-0.043;-0.021;126.0;42.800;-44.500;-92.500;975.2;8.0;48.94000;12.63524;381.7;105.5
20181213_154505;-0.369;8.006;2.935;-0.031;0.030;-0.010;126.0;43.100;-44.700;-93.000;975.2;8.0;48.94000;12.63524;381.7;105.5
20181213_154505;-0.608;9.702;4.470;-0.005;0.010;0.044;126.0;43.100;-44.800;-93.000;975.2;8.0;48.94000;12.63524;381.7;105.5
20181213_154505;-0.618;10.240;5.083;-0.017;-0.098;0.039;116.0;43.000;-44.700;-93.200;975.2;8.0;48.94000;12.63524;381.7;105.5
20181213_154505;0.948;8.495;3.723;-0.008;0.024;-0.045;116.0;42.800;-44.400;-93.000;975.2;8.0;48.94000;12.63524;381.7;105.5
20181213_154505;0.304;9.122;3.654;0.048;0.139;-0.038;122.0;42.900;-44.500;-93.100;975.2;8.0;48.94000;12.63524;381.7;105.5
20181213_154505;0.294;9.728;3.850;-0.006;-0.122;-0.038;118.0;43.100;-44.500;-92.500;975.2;8.0;48.93999;12.63564;381.9;106.0
20181213_154505;1.101;7.585;3.019;0.077;0.115;-0.023;118.0;43.200;-44.600;-92.200;975.2;8.0;48.93999;12.63564;381.9;106.0
20181213_154505;0.888;8.873;3.165;-0.009;0.088;-0.061;115.0;43.200;-44.500;-92.300;975.2;8.0;48.93999;12.63564;381.9;106.0
20181213_154505;0.869;8.844;3.144;-0.105;0.048;-0.014;115.0;42.900;-44.300;-92.500;975.2;8.0;48.93999;12.63564;381.9;106.0
20181213_154506;-0.874;8.959;4.642;-0.053;0.070;0.081;114.0;42.700;-44.200;-92.900;975.2;8.0;48.93999;12.63564;381.9;106.0
20181213_154506;-0.508;10.705;3.208;-0.206;-0.059;-0.004;114.0;42.500;-44.200;-92.800;975.2;8.0;48.93999;12.63564;381.9;106.0
20181213_154506;-0.776;8.433;2.023;0.012;-0.086;0.036;114.0;42.800;-44.300;-92.900;975.2;8.0;48.93999;12.63564;381.9;106.0
20181213_154506;-1.025;8.634;5.375;-0.145;0.094;0.057;112.0;42.800;-44.300;-92.700;975.2;8.0;48.93999;12.63564;381.9;106.0
20181213_154506;1.240;9.060;5.823;-0.024;-0.033;0.082;112.0;42.900;-44.400;-92.900;975.2;8.0;48.93999;12.63564;381.9;106.0
20181213_154506;-1.365;7.140;3.091;-0.075;-0.008;0.035;107.0;42.700;-44.200;-93.200;975.2;8.0;48.93997;12.63604;382.1;106.4
20181213_154506;-0.625;8.169;4.240;0.041;-0.036;0.059;109.0;42.700;-44.200;-93.200;975.2;8.0;48.93997;12.63604;382.1;106.4
20181213_154506;-1.283;9.330;5.548;-0.030;0.115;0.092;109.0;42.800;-43.900;-93.200;975.2;8.0;48.93997;12.63604;382.1;106.4
20181213_154506;-0.946;8.042;2.638;-0.155;-0.006;0.091;109.0;43.100;-43.900;-92.800;975.2;8.0;48.93997;12.63604;382.1;106.4
20181213_154506;-0.989;10.295;2.186;-0.039;-0.071;-0.004;114.0;43.100;-43.900;-93.200;975.2;8.0;48.93997;12.63604;382.1;106.4
20181213_154507;0.223;10.686;4.748;0.195;-0.114;-0.029;114.0;43.300;-44.000;-93.200;975.2;8.0;48.93997;12.63604;382.1;106.4
20181213_154507;-0.630;8.002;3.632;-0.103;0.103;0.021;122.0;43.200;-43.800;-93.100;975.2;8.0;48.93997;12.63604;382.1;106.4
20181213_154507;1.437;8.097;3.536;-0.008;0.125;-0.070;122.0;43.300;-43.700;-92.900;975.2;8.0;48.93997;12.63604;382.1;106.4
20181213_154507;0.431;9.084;4.628;0.056;0.074;-0.077;122.0;43.200;-44.000;-93.300;975.2;8.0;48.93997;12.63604;382.1;106.4
20181213_154507;0.218;9.963;3.405;0.130;-0.121;-0.145;116.0;43.400;-44.300;-93.500;975.2;8.0;48.93996;12.63645;382.3;107.5
20181213_154507;0.390;11.040;4.626;-0.021;0.167;0.001;116.0;43.200;-44.300;-93.200;975.1;8.0;48.93996;12.63645;382.3;107.5
20181213_154507;0.711;10.633;3.333;-0.122;0.018;-0.073;118.0;42.800;-44.000;-93.100;975.1;8.0;48.93996;12.63645;382.3;107.5
20181213_154507;-0.579;9.754;2.610;0.035;0.103;-0.054;118.0;42.600;-43.900;-93.100;975.0;8.0;48.93996;12.63645;382.3;107.5
20181213_154507;0.503;7.506;2.830;-0.033;0.151;-0.083;122.0;42.500;-43.800;-93.100;975.0;8.0;48.93996;12.63645;382.3;107.5
20181213_154508;-0.407;9.840;3.972;0.157;0.093;-0.003;122.0;43.000;-44.000;-93.200;975.0;8.0;48.93996;12.63645;382.3;107.5
20181213_154508;0.496;7.635;2.648;-0.043;0.093;-0.050;122.0;43.200;-43.900;-93.200;974.9;8.0;48.93996;12.63645;382.3;107.5
20181213_154508;-0.029;9.295;4.803;-0.047;0.054;-0.012;122.0;43.500;-44.100;-93.500;974.9;8.0;48.93996;12.63645;382.3;107.5
20181213_154508;-0.828;9.766;3.144;0.066;0.144;0.002;124.0;43.400;-44.000;-93.500;974.9;8.0;48.93996;12.63645;382.3;107.5
20181213_154508;-1.132;8.765;0.153;-0.041;-0.046;0.018;124.0;43.400;-44.100;-93.300;974.9;8.0;48.93995;12.63686;382.5;109.7
20181213_154508;-0.069;6.769;1.125;-0.064;-0.091;0.030;122.0;43.500;-44.100;-93.300;974.9;8.0;48.93995;12.63686;382.5;109.7
20181213_154508;-0.266;8.560;4.549;0.188;-0.053;-0.010;122.0;43.800;-44.400;-93.300;974.9;8.0;48.93995;12.63686;382.5;109.7
20181213_154508;-0.603;9.556;1.650;0.101;-0.023;0.018;122.0;43.900;-44.500;-93.200;974.9;8.0;48.93995;12.63686;382.5;109.7
20181213_154508;-1.171;9.656;4.130;0.058;-0.122;0.043;122.0;43.900;-44.400;-93.200;974.9;8.0;48.93995;12.63686;382.5;109.7
20181213_154509;-0.697;10.370;3.661;0.003;0.109;0.015;122.0;43.700;-44.000;-93.400;974.9;8.0;48.93995;12.63686;382.5;109.7
20181213_154509;-0.357;9.292;1.441;-0.154;0.002;0.003;122.0;43.300;-43.700;-93.100;975.0;8.0;48.93995;12.63686;382.5;109.7
20181213_154509;-0.536;9.860;4.073;-0.081;-0.019;0.001;122.0;43.200;-43.400;-92.900;975.0;8.0;48.93995;12.63686;382.5;109.7
20181213_154509;-0.735;8.023;1.772;-0.034;-0.074;0.028;122.0;43.300;-43.600;-93.100;975.0;8.0;48.93995;12.63686;382.5;109.7
20181213_154509;-0.852;7.927;3.982;-0.100;-0.042;-0.000;120.0;43.300;-43.900;-93.400;975.1;8.0;48.93995;12.63728;382.7;112.0
20181213_154509;-1.219;10.868;3.575;-0.031;-0.073;-0.011;120.0;43.200;-44.100;-93.800;975.1;8.0;48.93995;12.63728;382.7;112.0
20181213_154509;0.014;10.841;2.797;0.084;0.086;-0.057;115.0;43.000;-43.900;-94.200;975.0;8.0;48.93995;12.63728;382.7;112.0
20181213_154509;-1.274;8.308;2.157;-0.026;0.037;-0.026;118.0;42.600;-43.400;-94.800;975.0;8.0;48.93995;12.63728;382.7;112.0
20181213_154509;-1.137;8.684;4.094;0.059;-0.050;0.014;118.0;40.500;-45.700;-103.100;975.0;8.0;48.93995;12.63728;382.7;112.0
20181213_154510;-0.158;9.510;4.204;0.126;0.033;0.038;116.0;44.800;-66.100;-102.600;975.0;8.0;48.93995;12.63728;382.7;112.0
20181213_154510;-0.955;8.639;0.184;0.160;0.043;0.038;116.0;43.000;-63.500;-97.800;975.0;8.0;48.93995;12.63728;382.7;112.0
20181213_154510;-0.352;9.220;3.069;0.118;-0.129;0.026;110.0;46.300;-61.400;-96.200;975.0;8.0;48.93995;12.63728;382.7;112.0
20181213_154510;0.340;8.979;-0.666;-0.120;0.176;-0.057;112.0;42.300;-50.800;-90.900;974.9;8.0;48.93995;12.63728;382.7;112.0
20181213_154510;-1.439;10.315;3.893;0.110;-0.051;0.019;112.0;42.600;-43.500;-93.200;974.9;8.0;48.93995;12.63771;382.9;114.0
20181213_154510;-0.419;9.874;3.857;-0.052;-0.111;0.004;118.0;42.900;-44.500;-93.000;974.9;8.0;48.93995;12.63771;382.9;114.0
20181213_154510;-0.802;9.831;3.627;-0.102;-0.022;-0.006;119.0;42.700;-43.600;-93.400;974.9;8.0;48.93995;12.63771;382.9;114.0
20181213_154510;0.249;7.511;6.115;-0.154;-0.092;0.016;119.0;43.100;-44.000;-93.500;974.9;8.0;48.93995;12.63771;382.9;114.0
20181213_154510;-0.524;8.572;5.411;0.021;-0.047;0.053;122.0;42.700;-44.100;-93.500;974.9;8.0;48.93995;12.63771;382.9;114.0
20181213_154511;0.783;9.062;4.547;0.134;-0.045;-0.034;122.0;42.400;-44.200;-93.200;974.9;8.0;48.93995;12.63771;382.9;114.0
20181213_154511;0.639;8.196;3.781;0.103;-0.045;0.046;121.0;42.700;-44.100;-93.400;974.9;8.0;48.93995;12.63771;382.9;114.0
20181213_154511;0.249;6.381;2.986;0.034;-0.103;-0.039;118.0;43.000;-44.100;-93.300;974.8;8.0;48.93995;12.63771;382.9;114.0
20181213_154511;-0.208;8.682;1.875;0.182;-0.020;-0.002;118.0;43.000;-44.100;-93.200;974.8;8.0;48.93995;12.63771;382.9;114.0
20181213_154511;0.831;7.973;4.750;-0.002;0.098;-0.050;110.0;42.700;-44.100;-93.200;974.8;8.0;48.93995;12.63815;383.1;115.7
20181213_154511;0.340;9.223;3.690;0.027;0.118;-0.002;110.0;42.700;-44.000;-93.400;974.8;8.0;48.93995;12.63815;383.1;115.7
20181213_154511;0.752;9.711;3.476;0.182;-0.050;0.004;110.0;42.700;-44.000;-93.300;974.8;8.0;48.93995;12.63815;383.1;115.7
20181213_154511;0.555;10.123;4.868;-0.047;-0.089;0.006;118.0;42.700;-44.100;-92.900;974.8;8.0;48.93995;12.63815;383.1;115.7
20181213_154512;-0.134;8.490;5.548;0.044;0.076;-0.048;118.0;42.800;-44.200;-92.700;974.8;8.0;48.93995;12.63815;383.1;115.7
20181213_154512;0.160;8.955;0.424;-0.158;0.070;-0.095;118.0;42.900;-44.200;-92.800;974.8;8.0;48.93995;12.63815;383.1;115.7
20181213_154512;0.608;9.055;2.849;0.046;-0.018;0.051;116.0;42.900;-44.000;-92.900;974.7;8.0;48.93995;12.63815;383.1;115.7
20181213_154512;0.378;9.591;5.167;0.139;-0.067;0.044;116.0;42.900;-44.000;-92.700;974.7;8.0;48.93995;12.63815;383.1;115.7
20181213_154512;-0.354;10.025;3.371;-0.073;-0.069;-0.026;118.0;42.900;-43.900;-92.600;974.7;8.0;48.93995;12.63815;383.1;115.7
20181213_154512;0.800;9.146;2.895;0.055;-0.051;0.062;118.0;43.300;-44.000;-92.600;974.7;8.0;48.93996;12.63859;383.4;116.7
20181213_154512;-0.393;8.722;2.823;0.045;0.012;0.043;118.0;43.200;-43.800;-92.800;974.7;8.0;48.93996;12.63859;383.4;116.7
20181213_154512;1.276;11.129;2.097;-0.007;0.126;-0.055;114.0;42.800;-43.900;-92.800;974.7;8.0;48.93996;12.63859;383.4;116.7
20181213_154512;0.627;11.303;4.657;-0.081;-0.063;-0.040;114.0;42.200;-44.000;-92.500;974.7;8.0;48.93996;12.63859;383.4;116.7
20181213_154513;0.299;10.465;3.785;0.071;0.044;-0.004;115.0;42.400;-44.100;-92.200;974.7;8.0;48.93996;12.63859;383.4;116.7
20181213_154513;0.036;7.508;3.876;-0.020;0.065;0.077;115.0;42.800;-44.200;-92.200;974.6;8.0;48.93996;12.63859;383.4;116.7
20181213_154513;0.163;9.314;3.737;-0.106;-0.150;0.070;115.0;43.100;-44.200;-92.200;974.6;8.0;48.93996;12.63859;383.4;116.7
20181213_154513;1.008;8.665;2.243;0.060;-0.046;0.018;118.0;43.200;-44.300;-92.200;974.6;8.0;48.93996;12.63859;383.4;116.7
20181213_154513;-0.352;8.696;2.933;-0.092;0.024;0.017;118.0;42.900;-44.200;-92.000;974.6;8.0;48.93996;12.63859;383.4;116.7
20181213_154513;-0.297;8.133;4.640;-0.017;0.050;0.024;118.0;42.800;-44.100;-92.100;974.6;8.0;48.93996;12.63903;383.6;117.9
20181213_154513;0.711;9.297;6.024;0.014;0.065;-0.066;115.0;42.600;-44.200;-92.300;974.6;8.0;48.93996;12.63903;383.6;117.9
20181213_154513;-0.268;9.189;3.491;0.047;0.043;0.015;115.0;42.500;-44.500;-92.400;974.6;8.0;48.93996;12.63903;383.6;117.9
20181213_154513;-0.479;8.557;2.167;0.113;-0.059;0.049;118.0;42.600;-44.400;-92.400;974.6;8.0;48.93996;12.63903;383.6;117.9
20181213_154513;1.480;10.777;3.156;0.179;0.002;0.086;118.0;42.300;-44.300;-92.200;974.6;8.0;48.93996;12.63903;383.6;117.9
20181213_154514;0.541;9.919;4.635;0.017;0.056;-0.062;118.0;41.700;-44.000;-92.100;974.5;8.0;48.93996;12.63903;383.6;117.9
20181213_154514;-0.536;9.101;2.430;-0.038;-0.078;-0.030;118.0;40.900;-43.900;-92.100;974.5;8.0;48.93996;12.63903;383.6;117.9
20181213_154514;0.290;10.437;4.362;0.002;-0.039;0.056;118.0;40.600;-43.600;-92.300;974.5;8.0;48.93996;12.63903;383.6;117.9
20181213_154514;-0.328;7.066;2.521;-0.050;-0.070;-0.003;114.0;40.400;-43.200;-92.200;974.5;8.0;48.93996;12.63903;383.6;117.9
20181213_154514;-0.649;8.399;3.757;-0.218;-0.000;0.126;116.0;40.800;-42.600;-92.700;974.5;8.0;48.93995;12.63948;383.9;118.6
20181213_154514;0.455;9.630;5.617;-0.078;0.051;0.068;116.0;41.500;-42.200;-93.200;974.5;8.0;48.93995;12.63948;383.9;118.6
20181213_154514;0.177;7.561;2.382;-0.141;-0.062;-0.044;116.0;42.000;-42.000;-93.200;974.4;8.0;48.93995;12.63948;383.9;118.6
20181213_154514;0.261;9.975;3.766;0.099;-0.007;0.032;116.0;42.400;-42.100;-92.600;974.4;8.0;48.93995;12.63948;383.9;118.6
20181213_154514;0.788;8.967;4.473;0.092;0.116;0.018;116.0;42.800;-42.500;-91.600;974.4;8.0;48.93995;12.63948;383.9;118.6
20181213_154515;0.402;7.089;6.239;0.192;-0.068;-0.025;116.0;43.300;-42.900;-90.800;974.3;8.0;48.93995;12.63948;383.9;118.6
20181213_154515;0.553;8.296;3.364;0.021;-0.070;-0.084;116.0;43.200;-42.900;-91.000;974.3;8.0;48.93995;12.63948;383.9;118.6
20181213_154515;0.402;8.715;6.699;-0.189;0.035;-0.005;112.0;42.400;-42.700;-91.700;974.2;8.0;48.93995;12.63948;383.9;118.6
20181213_154515;0.158;7.530;4.662;0.088;-0.025;0.065;108.0;41.700;-42.800;-92.000;974.2;8.0;48.93995;12.63993;384.1;119.2
20181213_154515;1.482;8.330;2.172;0.142;-0.036;0.007;108.0;42.000;-43.100;-92.200;974.2;8.0;48.93995;12.63993;384.1;119.2
20181213_154515;0.093;9.390;1.319;-0.017;-0.069;0.086;108.0;42.500;-43.400;-92.300;974.1;8.0;48.93995;12.63993;384.1;119.2
20181213_154515;0.752;7.274;4.520;0.085;-0.073;-0.069;108.0;42.700;-43.700;-92.400;974.1;8.0;48.93995;12.63993;384.1;119.2
20181213_154515;0.692;7.805;1.384;0.114;-0.086;-0.026;108.0;42.600;-43.800;-92.500;974.1;8.0;48.93995;12.63993;384.1;119.2
20181213_154516;0.323;10.425;1.563;-0.031;-0.028;0.035;112.0;42.600;-44.100;-92.200;974.2;8.0;48.93995;12.63993;384.1;119.2
20181213_154516;0.512;10.094;5.761;0.054;-0.063;0.072;118.0;42.700;-44.400;-91.900;974.2;8.0;48.93995;12.63993;384.1;119.2
20181213_154516;1.068;7.860;1.906;0.317;0.045;-0.026;118.0;43.000;-44.600;-91.700;974.2;8.0;48.93995;12.63993;384.1;119.2
20181213_154516;1.046;9.785;4.374;-0.020;0.090;0.027;116.0;43.100;-44.600;-91.600;974.3;8.0;48.93995;12.63993;384.1;119.2
20181213_154516;0.067;7.959;3.958;-0.092;-0.009;-0.005;116.0;43.200;-44.500;-91.600;974.3;8.0;48.93994;12.64038;384.4;119.2
