Timestamp;Accel_x;Accel_y;Accel_z;Gyro_x;Gyro_y;Gyro_z;Magnetic_x;Magnetic_y;Magnetic_z;Pressure;Latitude;Longitude;Elevation;Speed
20190311_212841;-0.194;-0.017;9.759;0.005;-0.020;0.001;-3.900;-44.400;-158.100;946.4;0.00000;0.00000;0.0;0.0
20190311_212841;-0.175;0.000;9.771;-0.000;-0.001;0.000;-3.700;-44.300;-158.200;946.4;0.00000;0.00000;0.0;0.0
20190311_212842;-0.211;-0.019;9.764;0.001;-0.001;-0.001;-3.600;-44.400;-158.200;946.4;0.00000;0.00000;0.0;0.0
20190311_212842;-0.213;-0.026;9.757;0.000;0.001;-0.001;-3.600;-44.400;-158.400;946.5;0.00000;0.00000;0.0;0.0
20190311_212842;-0.199;-0.012;9.761;0.003;0.001;-0.001;-3.700;-44.400;-158.500;946.5;0.00000;0.00000;0.0;0.0
20190311_212842;-0.184;-0.024;9.764;0.002;-0.001;0.002;-3.700;-44.400;-158.300;946.5;0.00000;0.00000;0.0;0.0
20190311_212842;-0.204;-0.022;9.757;0.000;0.001;-0.002;-3.900;-44.400;-158.400;946.5;0.00000;0.00000;0.0;0.0
20190311_212842;-0.201;-0.012;9.757;-0.000;-0.001;0.000;-3.800;-44.400;-158.100;946.5;0.00000;0.00000;0.0;0.0
20190311_212842;-0.184;-0.017;9.764;0.001;0.001;-0.001;-3.700;-44.500;-158.000;946.5;0.00000;0.00000;0.0;0.0
20190311_212842;-0.184;-0.022;9.757;-0.002;-0.001;-0.001;-3.400;-44.600;-157.700;946.5;0.00000;0.00000;0.0;0.0
20190311_212842;-0.204;-0.002;9.759;0.000;-0.000;0.001;-3.200;-44.600;-157.400;946.5;0.00000;0.00000;0.0;0.0
20190311_212842;-0.192;-0.026;9.757;0.000;-0.000;0.000;-3.100;-44.800;-157.300;946.5;0.00000;0.00000;0.0;0.0
20190311_212842;-0.189;0.005;9.759;-0.000;0.001;-0.000;-3.000;-44.800;-157.400;946.5;0.00000;0.00000;0.0;0.0
20190311_212842;-0.187;-0.036;9.757;0.001;0.001;0.000;-3.100;-44.700;-157.500;946.5;0.00000;0.00000;0.0;0.0
20190311_212842;-0.184;-0.031;9.759;-0.002;0.001;0.002;-3.500;-44.700;-157.800;946.5;0.00000;0.00000;0.0;0.0
20190311_212842;-0.218;-0.012;9.759;0.002;-0.001;0.000;-3.700;-44.800;-158.000;946.5;0.00000;0.00000;0.0;0.0
20190311_212842;-0.204;-0.038;9.757;0.001;0.001;-0.001;-3.800;-44.700;-158.100;946.5;0.00000;0.00000;0.0;0.0
20190311_212842;-0.172;-0.048;9.757;0.000;0.001;0.000;-4.000;-44.700;-158.100;946.5;0.00000;0.00000;0.0;0.0
20190311_212842;-0.199;-0.019;9.764;0.002;0.002;0.001;-4.100;-44.700;-158.200;946.5;0.00000;0.00000;0.0;0.0
20190311_212843;-0.211;-0.022;9.757;0.000;-0.001;-0.000;-4.100;-44.700;-158.100;946.5;0.00000;0.00000;0.0;0.0
20190311_212843;-0.172;-0.024;9.761;-0.001;0.001;0.001;-4.100;-44.600;-158.100;946.5;0.00000;0.00000;0.0;0.0
20190311_212843;-0.184;-0.024;9.757;0.000;-0.001;-0.000;-4.100;-44.600;-158.100;946.5;0.00000;0.00000;0.0;0.0
20190311_212843;-0.204;-0.010;9.757;-0.002;-0.001;-0.001;-3.900;-44.600;-158.000;946.5;0.00000;0.00000;0.0;0.0
20190311_212843;-0.213;-0.022;9.757;0.002;0.001;0.002;-4.000;-44.700;-158.000;946.5;0.00000;0.00000;0.0;0.0
20190311_212843;-0.201;-0.026;9.757;0.000;-0.000;-0.001;-4.000;-44.700;-158.000;946.5;0.00000;0.00000;0.0;0.0
20190311_212843;-0.187;-0.014;9.761;-0.001;-0.001;-0.001;-4.100;-44.800;-158.100;946.5;0.00000;0.00000;0.0;0.0
20190311_212843;-0.208;-0.019;9.757;-0.001;-0.001;-0.000;-4.000;-44.800;-157.900;946.5;0.00000;0.00000;0.0;0.0
20190311_212843;-0.180;-0.022;9.757;0.003;-0.000;0.000;-4.200;-44.600;-158.100;946.5;0.00000;0.00000;0.0;0.0
20190311_212843;-0.189;-0.022;9.759;0.000;0.002;-0.002;-4.100;-44.600;-158.100;946.5;0.00000;0.00000;0.0;0.0
20190311_212843;-0.184;-0.029;9.761;0.000;-0.001;0.000;-4.000;-44.600;-157.900;946.5;0.00000;0.00000;0.0;0.0
20190311_212843;-0.184;-0.031;9.759;0.001;-0.000;0.001;-3.900;-44.500;-158.000;946.5;0.00000;0.00000;0.0;0.0
20190311_212843;-0.189;-0.031;9.757;0.000;0.001;-0.001;-4.000;-44.500;-158.000;946.5;0.00000;0.00000;0.0;0.0
20190311_212843;-0.208;-0.026;9.764;0.001;-0.001;-0.001;-3.900;-44.600;-157.900;946.5;0.00000;0.00000;0.0;0.0
20190311_212843;-0.208;-0.036;9.757;-0.000;0.001;0.000;-4.000;-44.700;-157.900;946.5;0.00000;0.00000;0.0;0.0
20190311_212843;-0.196;-0.019;9.757;-0.000;0.002;-0.000;-4.000;-44.700;-157.900;946.5;0.00000;0.00000;0.0;0.0
20190311_212843;-0.184;-0.010;9.761;0.003;-0.001;-0.001;-3.900;-44.800;-157.900;946.5;0.00000;0.00000;0.0;0.0
20190311_212844;-0.211;-0.012;9.757;0.001;-0.000;0.000;-3.900;-44.800;-158.000;946.5;0.00000;0.00000;0.0;0.0
20190311_212844;-0.180;-0.036;9.757;-0.000;0.001;0.000;-4.000;-44.700;-157.900;946.5;0.00000;0.00000;0.0;0.0
20190311_212844;-0.199;-0.031;9.757;-0.001;-0.001;0.001;-4.000;-44.700;-157.800;946.5;0.00000;0.00000;0.0;0.0
20190311_212844;-0.194;-0.031;9.757;-0.001;-0.001;-0.000;-4.100;-44.700;-157.900;946.5;0.00000;0.00000;0.0;0.0
20190311_212844;-0.199;-0.012;9.757;-0.001;-0.000;0.000;-4.000;-44.600;-157.800;946.5;0.00000;0.00000;0.0;0.0
20190311_212844;-0.199;-0.022;9.764;0.002;-0.001;0.002;-4.000;-44.700;-157.800;946.5;0.00000;0.00000;0.0;0.0
20190311_212844;-0.201;-0.026;9.757;-0.000;-0.003;-0.001;-3.600;-44.800;-157.600;946.5;0.00000;0.00000;0.0;0.0
20190311_212844;-0.211;-0.022;9.757;-0.000;-0.000;-0.000;-3.300;-44.900;-157.100;946.5;0.00000;0.00000;0.0;0.0
20190311_212844;-0.182;-0.053;9.761;-0.000;-0.001;0.001;-3.100;-44.900;-157.100;946.5;0.00000;0.00000;0.0;0.0
20190311_212844;-0.204;-0.024;9.757;-0.001;-0.000;0.002;-3.000;-45.000;-156.900;946.5;0.00000;0.00000;0.0;0.0
20190311_212844;-0.196;-0.024;9.759;-0.000;-0.002;-0.003;-3.100;-45.000;-156.900;946.5;0.00000;0.00000;0.0;0.0
20190311_212844;-0.206;-0.029;9.759;0.001;-0.000;-0.000;-3.500;-44.900;-157.200;946.5;0.00000;0.00000;0.0;0.0
20190311_212844;-0.189;-0.036;9.757;0.002;-0.003;-0.000;-3.700;-44.800;-157.600;946.5;0.00000;0.00000;0.0;0.0
20190311_212844;-0.194;-0.010;9.757;0.002;-0.001;0.001;-3.900;-44.800;-157.800;946.5;0.00000;0.00000;0.0;0.0
20190311_212844;-0.208;-0.024;9.757;0.001;0.001;0.001;-4.200;-44.900;-158.100;946.5;0.00000;0.00000;0.0;0.0
20190311_212844;-0.196;-0.038;9.759;-0.002;-0.001;-0.001;-4.200;-44.800;-158.000;946.5;0.00000;0.00000;0.0;0.0
20190311_212845;-0.196;-0.045;9.759;0.001;0.001;0.000;-4.200;-45.000;-158.200;946.5;0.00000;0.00000;0.0;0.0
20190311_212845;-0.192;-0.017;9.757;0.001;0.002;0.000;-4.200;-45.100;-158.000;946.5;0.00000;0.00000;0.0;0.0
20190311_212845;-0.213;-0.031;9.757;0.003;-0.000;-0.002;-4.200;-45.100;-158.200;946.5;0.00000;0.00000;0.0;0.0
20190311_212845;-0.201;-0.029;9.757;-0.000;-0.001;0.000;-4.000;-45.000;-158.100;946.5;0.00000;0.00000;0.0;0.0
20190311_212845;-0.196;-0.036;9.757;-0.002;0.001;0.000;-4.000;-45.000;-157.900;946.5;0.00000;0.00000;0.0;0.0
20190311_212845;-0.187;-0.019;9.764;0.000;-0.001;-0.002;-4.100;-44.800;-158.000;946.5;0.00000;0.00000;0.0;0.0
20190311_212845;-0.201;-0.014;9.757;0.000;-0.001;0.002;-4.000;-44.800;-158.000;946.5;0.00000;0.00000;0.0;0.0
20190311_212845;-0.189;-0.041;9.757;-0.002;0.001;0.001;-4.100;-44.700;-157.900;946.5;0.00000;0.00000;0.0;0.0
20190311_212845;-0.187;-0.041;9.757;0.001;0.001;0.001;-3.900;-44.800;-157.300;946.5;0.00000;0.00000;0.0;0.0
20190311_212845;-0.199;-0.019;9.759;0.000;-0.000;-0.003;-3.700;-44.900;-157.100;946.5;0.00000;0.00000;0.0;0.0
20190311_212845;-0.196;-0.031;9.757;-0.002;0.001;0.000;-3.500;-45.100;-156.800;946.5;0.00000;0.00000;0.0;0.0
20190311_212845;-0.194;-0.034;9.757;0.002;-0.000;0.000;-3.500;-45.100;-156.900;946.5;0.00000;0.00000;0.0;0.0
20190311_212845;-0.199;-0.034;9.757;0.000;-0.001;0.001;-3.500;-45.100;-156.900;946.5;0.00000;0.00000;0.0;0.0
20190311_212845;-0.192;-0.041;9.757;-0.000;-0.000;-0.000;-3.700;-45.100;-157.300;946.5;0.00000;0.00000;0.0;0.0
20190311_212845;-0.208;-0.041;9.757;0.002;-0.000;0.001;-4.200;-45.000;-158.200;946.5;0.00000;0.00000;0.0;0.0
20190311_212845;-0.199;-0.029;9.759;-0.002;-0.000;-0.001;-4.400;-44.900;-158.300;946.5;0.00000;0.00000;0.0;0.0
20190311_212845;-0.189;-0.024;9.759;-0.000;-0.000;-0.000;-4.400;-44.900;-158.300;946.5;0.00000;0.00000;0.0;0.0
20190311_212846;-0.175;-0.007;9.757;0.001;-0.001;0.000;-4.500;-45.000;-158.200;946.5;0.00000;0.00000;0.0;0.0
20190311_212846;-0.187;-0.034;9.757;0.000;0.002;-0.001;-4.600;-45.000;-158.200;946.5;0.00000;0.00000;0.0;0.0
20190311_212846;-0.180;-0.048;9.757;0.002;-0.001;-0.001;-4.500;-45.100;-158.000;946.5;0.00000;0.00000;0.0;0.0
20190311_212846;-0.192;-0.038;9.757;-0.002;0.001;0.000;-4.400;-45.100;-158.000;946.5;0.00000;0.00000;0.0;0.0
20190311_212846;-0.192;-0.022;9.757;0.001;0.001;0.000;-4.300;-45.100;-157.900;946.5;0.00000;0.00000;0.0;0.0
20190311_212846;-0.199;-0.022;9.761;0.001;-0.000;-0.001;-4.200;-45.100;-158.000;946.5;0.00000;0.00000;0.0;0.0
20190311_212846;-0.182;-0.017;9.757;0.001;0.001;0.000;-4.200;-45.100;-158.100;946.5;0.00000;0.00000;0.0;0.0
20190311_212846;-0.196;-0.031;9.757;0.002;-0.001;0.000;-4.300;-45.000;-158.300;946.5;0.00000;0.00000;0.0;0.0
20190311_212846;-0.192;-0.024;9.764;0.001;0.001;0.001;-4.300;-45.000;-158.300;946.5;0.00000;0.00000;0.0;0.0
20190311_212846;-0.201;-0.031;9.757;-0.001;0.001;0.003;-4.400;-44.900;-158.400;946.5;0.00000;0.00000;0.0;0.0
20190311_212846;-0.184;-0.026;9.757;-0.001;0.001;0.001;-4.400;-44.900;-158.400;946.5;0.00000;0.00000;0.0;0.0
20190311_212846;-0.184;-0.031;9.761;0.000;-0.002;-0.000;-4.400;-44.900;-158.300;946.5;0.00000;0.00000;0.0;0.0
20190311_212846;-0.187;-0.031;9.757;0.001;0.001;0.000;-4.300;-44.800;-158.200;946.5;0.00000;0.00000;0.0;0.0
20190311_212846;-0.206;-0.026;9.757;0.000;-0.001;0.002;-4.200;-44.900;-158.100;946.5;0.00000;0.00000;0.0;0.0
20190311_212846;-0.196;-0.019;9.757;-0.000;-0.000;-0.001;-4.100;-45.000;-158.100;946.5;0.00000;0.00000;0.0;0.0
20190311_212846;-0.196;-0.026;9.757;-0.000;-0.000;0.001;-4.000;-45.100;-158.100;946.5;0.00000;0.00000;0.0;0.0
20190311_212846;-0.199;-0.036;9.757;0.000;-0.002;0.000;-4.000;-45.000;-158.200;946.5;0.00000;0.00000;0.0;0.0
20190311_212847;-0.180;-0.024;9.757;0.001;-0.001;0.000;-4.100;-45.000;-158.200;946.5;0.00000;0.00000;0.0;0.0
20190311_212847;-0.184;-0.029;9.757;0.000;-0.002;0.000;-4.100;-45.000;-158.400;946.5;0.00000;0.00000;0.0;0.0
20190311_212847;-0.204;-0.041;9.754;0.002;0.002;-0.000;-4.200;-44.900;-158.300;946.5;0.00000;0.00000;0.0;0.0
20190311_212847;-0.182;-0.017;9.754;-0.001;-0.000;0.002;-4.200;-44.900;-158.200;946.5;0.00000;0.00000;0.0;0.0
20190311_212847;-0.196;-0.024;9.757;0.000;0.001;0.000;-4.300;-45.000;-158.200;946.5;0.00000;0.00000;0.0;0.0
20190311_212847;-0.175;-0.034;9.754;0.001;0.002;0.002;-4.300;-44.900;-158.100;946.5;0.00000;0.00000;0.0;0.0
20190311_212847;-0.213;-0.036;9.754;0.000;-0.000;0.001;-4.200;-45.100;-158.200;946.5;0.00000;0.00000;0.0;0.0
20190311_212847;-0.168;-0.014;9.757;-0.002;-0.001;-0.001;-4.300;-45.100;-158.300;946.5;0.00000;0.00000;0.0;0.0
20190311_212847;-0.187;-0.031;9.757;0.001;0.001;-0.000;-4.300;-45.100;-158.100;946.5;0.00000;0.00000;0.0;0.0
20190311_212847;-0.196;-0.019;9.754;-0.000;-0.000;0.002;-4.400;-45.100;-158.100;946.5;0.00000;0.00000;0.0;0.0
20190311_212847;-0.194;-0.029;9.757;-0.001;-0.001;-0.001;-4.400;-45.200;-158.200;946.5;0.00000;0.00000;0.0;0.0
20190311_212847;-0.187;-0.029;9.757;-0.000;0.001;0.000;-4.400;-45.100;-158.200;946.5;0.00000;0.00000;0.0;0.0
20190311_212847;-0.177;-0.036;9.757;0.000;-0.001;-0.000;-4.500;-45.000;-158.100;946.5;0.00000;0.00000;0.0;0.0
20190311_212847;-0.184;-0.024;9.757;0.003;0.001;0.001;-4.500;-45.000;-158.200;946.5;0.00000;0.00000;0.0;0.0
20190311_212847;-0.187;0.005;9.733;0.002;-0.000;0.000;-4.600;-45.100;-158.300;946.5;0.00000;0.00000;0.0;0.0
20190311_212847;-0.194;-0.024;9.757;0.001;-0.001;-0.001;-4.600;-45.100;-158.100;946.5;0.00000;0.00000;0.0;0.0
20190311_212848;-0.204;-0.017;9.757;0.001;0.001;0.001;-4.600;-45.200;-158.200;946.5;0.00000;0.00000;0.0;0.0
20190311_212848;-0.192;-0.036;9.757;0.001;-0.001;0.002;-4.500;-45.300;-158.500;946.5;0.00000;0.00000;0.0;0.0
20190311_212848;-0.194;-0.017;9.757;0.001;0.001;0.000;-4.500;-45.400;-158.400;946.5;0.00000;0.00000;0.0;0.0
20190311_212848;-0.204;-0.019;9.757;0.001;0.001;-0.001;-4.500;-45.400;-158.300;946.5;0.00000;0.00000;0.0;0.0
20190311_212848;-0.192;-0.038;9.757;-0.000;0.002;-0.000;-4.600;-45.400;-158.400;946.5;0.00000;0.00000;0.0;0.0
20190311_212848;-0.196;-0.019;9.757;-0.000;-0.001;-0.001;-4.500;-45.300;-158.300;946.5;0.00000;0.00000;0.0;0.0
20190311_212848;-0.182;-0.031;9.757;0.000;-0.001;0.002;-4.600;-45.300;-158.000;946.5;0.00000;0.00000;0.0;0.0
20190311_212848;-0.192;-0.022;9.757;0.003;-0.002;0.002;-4.400;-45.200;-157.900;946.5;0.00000;0.00000;0.0;0.0
20190311_212848;-0.201;-0.022;9.754;-0.002;0.001;-0.001;-4.400;-45.200;-157.900;946.5;0.00000;0.00000;0.0;0.0
20190311_212848;-0.199;-0.045;9.757;0.002;-0.001;-0.002;-4.300;-45.100;-157.800;946.5;0.00000;0.00000;0.0;0.0
20190311_212848;-0.175;-0.029;9.761;0.001;0.002;-0.001;-4.200;-45.100;-157.800;946.5;0.00000;0.00000;0.0;0.0
20190311_212848;-0.180;-0.026;9.757;-0.001;-0.001;0.003;-3.700;-45.200;-157.400;946.5;0.00000;0.00000;0.0;0.0
20190311_212848;-0.201;-0.019;9.757;-0.000;0.001;0.000;-3.600;-45.300;-157.600;946.5;0.00000;0.00000;0.0;0.0
20190311_212848;-0.192;-0.024;9.757;-0.002;-0.000;-0.001;-3.600;-45.300;-157.700;946.5;0.00000;0.00000;0.0;0.0
20190311_212848;-0.196;-0.034;9.757;0.000;-0.001;-0.000;-3.600;-45.300;-157.800;946.5;0.00000;0.00000;0.0;0.0
20190311_212848;-0.201;-0.024;9.757;-0.001;0.002;-0.000;-3.700;-45.400;-157.800;946.5;0.00000;0.00000;0.0;0.0
20190311_212848;-0.187;-0.036;9.759;-0.001;-0.000;-0.000;-4.200;-45.100;-158.400;946.5;0.00000;0.00000;0.0;0.0
20190311_212849;-0.192;-0.034;9.757;0.000;-0.002;-0.000;-4.300;-45.100;-158.400;946.5;0.00000;0.00000;0.0;0.0
20190311_212849;-0.204;-0.022;9.757;0.001;0.002;0.000;-4.300;-45.100;-158.500;946.5;0.00000;0.00000;0.0;0.0
20190311_212849;-0.204;-0.022;9.759;0.001;0.001;-0.001;-4.500;-45.100;-158.600;946.5;0.00000;0.00000;0.0;0.0
20190311_212849;-0.206;-0.029;9.757;0.000;-0.001;-0.000;-4.500;-45.100;-158.700;946.5;0.00000;0.00000;0.0;0.0
20190311_212849;-0.196;-0.017;9.761;-0.000;0.001;-0.001;-4.300;-45.200;-158.600;946.5;0.00000;0.00000;0.0;0.0
20190311_212849;-0.199;-0.014;9.757;0.001;0.001;0.001;-4.500;-45.300;-158.800;946.5;0.00000;0.00000;0.0;0.0
20190311_212849;-0.201;-0.036;9.757;-0.000;0.001;0.001;-4.500;-45.200;-158.800;946.5;0.00000;0.00000;0.0;0.0
20190311_212849;-0.206;-0.017;9.757;0.001;0.001;-0.000;-4.400;-45.300;-158.600;946.5;0.00000;0.00000;0.0;0.0
20190311_212849;-0.189;-0.029;9.757;0.001;-0.000;-0.000;-4.500;-45.300;-158.700;946.5;0.00000;0.00000;0.0;0.0
20190311_212849;-0.192;-0.029;9.759;0.000;0.001;-0.000;-4.700;-45.200;-158.900;946.5;0.00000;0.00000;0.0;0.0
20190311_212849;-0.189;-0.022;9.757;0.000;-0.001;0.000;-4.600;-45.200;-158.700;946.5;0.00000;0.00000;0.0;0.0
20190311_212849;-0.201;-0.036;9.757;0.001;0.001;-0.002;-4.500;-45.200;-158.600;946.5;0.00000;0.00000;0.0;0.0
20190311_212849;-0.177;-0.041;9.757;0.000;-0.000;0.000;-4.400;-45.300;-158.200;946.5;0.00000;0.00000;0.0;0.0
20190311_212849;-0.182;-0.036;9.759;-0.003;-0.002;0.000;-4.100;-45.300;-157.800;946.5;0.00000;0.00000;0.0;0.0
20190311_212849;-0.182;-0.014;9.757;-0.001;0.001;-0.000;-3.500;-45.400;-157.200;946.5;0.00000;0.00000;0.0;0.0
20190311_212849;-0.187;-0.017;9.759;0.001;0.001;-0.000;-3.300;-45.500;-156.900;946.5;0.00000;0.00000;0.0;0.0
20190311_212850;-0.194;-0.034;9.757;-0.000;-0.001;-0.000;-3.400;-45.500;-157.100;946.5;0.00000;0.00000;0.0;0.0
20190311_212850;-0.215;-0.019;9.759;-0.000;0.001;-0.000;-3.500;-45.400;-157.500;946.5;0.00000;0.00000;0.0;0.0
20190311_212850;-0.182;-0.024;9.759;0.001;0.001;0.001;-3.800;-45.500;-158.000;946.5;0.00000;0.00000;0.0;0.0
20190311_212850;-0.187;-0.024;9.761;-0.000;-0.001;-0.000;-4.300;-45.400;-158.300;946.5;0.00000;0.00000;0.0;0.0
20190311_212850;-0.182;-0.036;9.757;0.002;-0.001;0.001;-4.700;-45.400;-158.600;946.5;0.00000;0.00000;0.0;0.0
20190311_212850;-0.141;-0.050;9.757;-0.002;-0.000;-0.000;-4.600;-45.400;-158.300;946.5;0.00000;0.00000;0.0;0.0
20190311_212850;-0.196;-0.024;9.759;0.001;-0.000;-0.000;-4.600;-45.400;-158.400;946.5;0.00000;0.00000;0.0;0.0
20190311_212850;-0.163;-0.005;9.773;0.000;0.002;-0.002;-4.600;-45.300;-158.400;946.5;0.00000;0.00000;0.0;0.0
20190311_212850;-0.199;-0.005;9.759;0.001;0.001;0.000;-4.300;-45.400;-158.500;946.5;0.00000;0.00000;0.0;0.0
20190311_212850;-0.187;-0.034;9.764;0.001;0.001;0.000;-4.300;-45.400;-158.500;946.5;0.00000;0.00000;0.0;0.0
20190311_212850;-0.170;-0.026;9.761;0.000;0.002;0.001;-4.400;-45.400;-158.600;946.5;0.00000;0.00000;0.0;0.0
20190311_212850;-0.211;-0.038;9.757;-0.002;0.001;-0.000;-4.400;-45.300;-158.500;946.5;0.00000;0.00000;0.0;0.0
20190311_212850;-0.192;-0.017;9.754;-0.000;-0.001;-0.001;-4.300;-45.300;-158.400;946.5;0.00000;0.00000;0.0;0.0
20190311_212850;-0.199;-0.036;9.757;-0.001;0.002;0.001;-4.600;-45.300;-158.700;946.5;0.00000;0.00000;0.0;0.0
20190311_212850;-0.196;-0.065;9.757;-0.001;-0.001;0.000;-4.600;-45.400;-158.600;946.5;0.00000;0.00000;0.0;0.0
20190311_212850;-0.192;-0.019;9.757;0.001;-0.001;0.000;-4.600;-45.300;-158.700;946.5;0.00000;0.00000;0.0;0.0
20190311_212850;-0.189;-0.036;9.757;-0.001;-0.001;0.000;-4.700;-45.300;-158.600;946.5;0.00000;0.00000;0.0;0.0
20190311_212851;-0.189;-0.034;9.757;0.000;0.002;-0.000;-4.700;-45.300;-158.600;946.5;0.00000;0.00000;0.0;0.0
20190311_212851;-0.196;-0.038;9.757;0.000;-0.001;0.002;-4.600;-45.300;-158.500;946.5;0.00000;0.00000;0.0;0.0
20190311_212851;-0.187;-0.038;9.757;0.001;-0.000;-0.001;-4.500;-45.300;-158.500;946.5;0.00000;0.00000;0.0;0.0
20190311_212851;-0.168;-0.034;9.757;-0.002;-0.000;0.000;-4.600;-45.400;-158.600;946.5;0.00000;0.00000;0.0;0.0
20190311_212851;-0.192;-0.019;9.757;-0.000;-0.000;-0.001;-4.600;-45.400;-158.700;946.5;0.00000;0.00000;0.0;0.0
20190311_212851;-0.180;-0.014;9.757;-0.002;0.001;-0.001;-4.500;-45.400;-158.600;946.5;0.00000;0.00000;0.0;0.0
20190311_212851;-0.172;-0.045;9.757;0.000;0.001;-0.001;-4.600;-45.300;-158.500;946.5;0.00000;0.00000;0.0;0.0
20190311_212851;-0.184;-0.036;9.757;0.000;0.001;-0.000;-4.600;-45.200;-158.500;946.5;0.00000;0.00000;0.0;0.0
20190311_212851;-0.196;-0.024;9.757;0.002;0.001;-0.000;-4.600;-45.300;-158.500;946.5;0.00000;0.00000;0.0;0.0
20190311_212851;-0.196;-0.041;9.754;-0.002;0.001;-0.001;-4.500;-45.300;-158.500;946.5;0.00000;0.00000;0.0;0.0
20190311_212851;-0.201;-0.014;9.759;-0.000;0.001;-0.001;-4.600;-45.300;-158.600;946.5;0.00000;0.00000;0.0;0.0
20190311_212851;-0.201;-0.017;9.757;0.002;0.001;-0.000;-4.500;-45.300;-158.500;946.5;0.00000;0.00000;0.0;0.0
20190311_212851;-0.189;-0.034;9.759;-0.001;0.002;-0.002;-3.900;-45.500;-157.900;946.5;0.00000;0.00000;0.0;0.0
20190311_212851;-0.201;-0.029;9.757;0.001;0.001;0.002;-3.700;-45.500;-157.600;946.5;0.00000;0.00000;0.0;0.0
20190311_212851;-0.172;-0.041;9.759;0.001;0.001;-0.001;-3.600;-45.500;-157.500;946.5;0.00000;0.00000;0.0;0.0
20190311_212851;-0.206;-0.026;9.752;-0.000;0.001;-0.000;-3.500;-45.500;-157.400;946.5;0.00000;0.00000;0.0;0.0
20190311_212852;-0.182;-0.026;9.757;0.000;0.001;0.003;-3.600;-45.500;-157.500;946.5;0.00000;0.00000;0.0;0.0
20190311_212852;-0.189;-0.031;9.757;0.000;-0.000;0.001;-4.100;-45.400;-158.000;946.5;0.00000;0.00000;0.0;0.0
20190311_212852;-0.180;-0.041;9.757;0.001;-0.000;-0.001;-4.400;-45.300;-158.300;946.5;0.00000;0.00000;0.0;0.0
20190311_212852;-0.182;-0.031;9.759;0.001;0.001;-0.001;-4.500;-45.300;-158.500;946.5;0.00000;0.00000;0.0;0.0
20190311_212852;-0.201;-0.022;9.757;0.001;-0.000;0.002;-4.500;-45.300;-158.500;946.5;0.00000;0.00000;0.0;0.0
20190311_212852;-0.189;-0.043;9.759;0.000;-0.000;0.000;-4.500;-45.300;-158.500;946.5;0.00000;0.00000;0.0;0.0
20190311_212852;-0.177;-0.024;9.757;-0.003;0.001;-0.002;-4.500;-45.400;-158.500;946.5;0.00000;0.00000;0.0;0.0
20190311_212852;-0.187;-0.024;9.757;-0.002;0.002;0.000;-4.500;-45.400;-158.500;946.5;0.00000;0.00000;0.0;0.0
20190311_212852;-0.201;-0.026;9.757;-0.001;-0.000;0.000;-4.500;-45.500;-158.600;946.5;0.00000;0.00000;0.0;0.0
20190311_212852;-0.196;-0.034;9.757;0.002;-0.001;-0.001;-4.700;-45.600;-158.600;946.5;0.00000;0.00000;0.0;0.0
20190311_212852;-0.187;-0.036;9.757;-0.002;-0.000;-0.001;-4.900;-45.600;-158.600;946.5;0.00000;0.00000;0.0;0.0
20190311_212852;-0.187;-0.012;9.757;-0.000;-0.000;-0.000;-4.900;-45.500;-158.700;946.5;0.00000;0.00000;0.0;0.0
20190311_212852;-0.201;-0.029;9.757;0.000;0.001;0.000;-4.900;-45.500;-158.600;946.5;0.00000;0.00000;0.0;0.0
20190311_212852;-0.189;-0.031;9.757;-0.001;0.001;-0.001;-4.800;-45.400;-158.500;946.5;0.00000;0.00000;0.0;0.0
20190311_212852;-0.192;-0.024;9.757;-0.001;0.001;-0.002;-4.600;-45.300;-158.500;946.5;0.00000;0.00000;0.0;0.0
20190311_212852;-0.196;-0.026;9.761;0.000;0.001;0.002;-4.600;-45.300;-158.600;946.5;0.00000;0.00000;0.0;0.0
20190311_212852;-0.201;-0.031;9.757;-0.001;-0.001;-0.001;-4.300;-45.400;-158.500;946.5;0.00000;0.00000;0.0;0.0
20190311_212853;-0.204;-0.022;9.754;0.001;-0.001;-0.001;-4.200;-45.300;-158.600;946.5;0.00000;0.00000;0.0;0.0
20190311_212853;-0.192;-0.026;9.757;0.001;0.001;-0.001;-4.200;-45.300;-158.600;946.5;0.00000;0.00000;0.0;0.0
20190311_212853;-0.196;-0.024;9.757;0.000;0.002;0.000;-4.300;-45.300;-158.700;946.5;0.00000;0.00000;0.0;0.0
20190311_212853;-0.201;-0.026;9.757;0.000;0.001;0.001;-4.600;-45.300;-158.700;946.5;0.00000;0.00000;0.0;0.0
20190311_212853;-0.199;-0.024;9.749;0.000;-0.000;-0.003;-4.600;-45.300;-158.700;946.5;0.00000;0.00000;0.0;0.0
20190311_212853;-0.182;-0.036;9.757;-0.000;-0.001;-0.000;-4.700;-45.300;-158.700;946.5;0.00000;0.00000;0.0;0.0
20190311_212853;-0.177;-0.029;9.757;0.002;0.001;0.001;-4.700;-45.400;-158.800;946.5;0.00000;0.00000;0.0;0.0
20190311_212853;-0.182;-0.036;9.757;0.001;0.002;0.001;-4.700;-45.400;-158.900;946.5;0.00000;0.00000;0.0;0.0
20190311_212853;-0.196;-0.022;9.757;0.000;0.001;-0.001;-4.700;-45.400;-158.900;946.5;0.00000;0.00000;0.0;0.0
20190311_212853;-0.204;-0.026;9.757;0.001;-0.000;-0.000;-4.500;-45.500;-159.000;946.5;0.00000;0.00000;0.0;0.0
20190311_212853;-0.208;-0.017;9.754;0.001;0.001;0.000;-4.500;-45.500;-158.900;946.5;0.00000;0.00000;0.0;0.0
20190311_212853;-0.184;-0.045;9.757;0.002;-0.000;0.002;-4.500;-45.400;-158.900;946.5;0.00000;0.00000;0.0;0.0
20190311_212853;-0.206;-0.024;9.757;0.002;-0.001;-0.001;-4.500;-45.500;-158.600;946.5;0.00000;0.00000;0.0;0.0
20190311_212853;-0.196;-0.029;9.757;0.000;0.001;-0.001;-4.500;-45.400;-158.700;946.5;0.00000;0.00000;0.0;0.0
20190311_212853;-0.184;-0.019;9.757;0.000;-0.002;-0.001;-4.800;-45.400;-158.700;946.5;0.00000;0.00000;0.0;0.0
20190311_212853;-0.194;-0.029;9.757;0.001;0.001;-0.001;-4.800;-45.300;-158.700;946.5;0.00000;0.00000;0.0;0.0
20190311_212853;-0.175;-0.041;9.757;0.001;0.002;0.000;-4.800;-45.400;-158.500;946.5;0.00000;0.00000;0.0;0.0
20190311_212854;-0.189;-0.029;9.757;0.001;-0.001;0.001;-4.700;-45.300;-158.900;946.5;0.00000;0.00000;0.0;0.0
20190311_212854;-0.189;-0.029;9.757;-0.000;0.001;-0.001;-4.700;-45.300;-158.800;946.5;0.00000;0.00000;0.0;0.0
20190311_212854;-0.206;-0.029;9.754;0.001;-0.001;-0.000;-4.700;-45.400;-158.700;946.5;0.00000;0.00000;0.0;0.0
20190311_212854;-0.208;-0.019;9.759;0.001;-0.001;-0.003;-4.600;-45.400;-158.600;946.5;0.00000;0.00000;0.0;0.0
20190311_212854;-0.199;-0.029;9.757;0.000;0.001;-0.001;-4.700;-45.400;-158.600;946.5;0.00000;0.00000;0.0;0.0
20190311_212854;-0.194;-0.029;9.757;0.000;-0.000;-0.000;-4.800;-45.400;-158.500;946.5;0.00000;0.00000;0.0;0.0
20190311_212854;-0.206;-0.029;9.757;-0.000;-0.002;-0.000;-4.600;-45.400;-158.600;946.5;0.00000;0.00000;0.0;0.0
20190311_212854;-0.208;-0.031;9.754;0.002;-0.000;0.000;-4.800;-45.400;-158.600;946.5;0.00000;0.00000;0.0;0.0
20190311_212854;-0.206;-0.026;9.759;-0.000;-0.001;0.000;-4.900;-45.400;-158.600;946.5;0.00000;0.00000;0.0;0.0
20190311_212854;-0.196;-0.019;9.757;0.001;0.001;-0.000;-4.800;-45.500;-158.600;946.5;0.00000;0.00000;0.0;0.0
20190311_212854;-0.182;-0.031;9.757;-0.000;-0.000;-0.002;-4.800;-45.500;-158.600;946.5;0.00000;0.00000;0.0;0.0
20190311_212854;-0.175;-0.029;9.759;-0.001;0.001;-0.002;-4.900;-45.600;-158.700;946.5;0.00000;0.00000;0.0;0.0
20190311_212854;-0.199;-0.031;9.754;0.000;0.001;0.000;-4.600;-45.600;-158.700;946.5;0.00000;0.00000;0.0;0.0
20190311_212854;-0.204;-0.031;9.757;-0.000;0.001;0.001;-4.600;-45.600;-158.700;946.5;0.00000;0.00000;0.0;0.0
20190311_212854;-0.192;-0.024;9.761;-0.002;0.002;-0.001;-4.500;-45.700;-158.700;946.5;0.00000;0.00000;0.0;0.0
20190311_212854;-0.182;-0.029;9.757;0.003;0.001;-0.001;-4.300;-45.700;-158.500;946.5;0.00000;0.00000;0.0;0.0
20190311_212855;-0.182;-0.034;9.757;-0.000;-0.000;-0.000;-4.200;-45.800;-158.300;946.5;0.00000;0.00000;0.0;0.0
20190311_212855;-0.206;-0.019;9.757;0.000;-0.000;0.002;-4.400;-45.700;-158.400;946.5;0.00000;0.00000;0.0;0.0
20190311_212855;-0.189;-0.029;9.757;-0.000;-0.000;-0.000;-4.400;-45.700;-158.600;946.5;0.00000;0.00000;0.0;0.0
20190311_212855;-0.196;-0.022;9.757;-0.000;-0.000;0.001;-4.500;-45.700;-158.700;946.5;0.00000;0.00000;0.0;0.0
20190311_212855;-0.180;-0.026;9.764;-0.000;0.001;-0.000;-4.700;-45.600;-159.100;946.5;0.00000;0.00000;0.0;0.0
20190311_212855;-0.187;-0.029;9.757;0.000;-0.001;0.000;-4.800;-45.600;-159.200;946.5;0.00000;0.00000;0.0;0.0
20190311_212855;-0.180;-0.048;9.757;-0.001;-0.000;-0.001;-4.600;-45.600;-159.000;946.5;0.00000;0.00000;0.0;0.0
20190311_212855;-0.187;-0.036;9.757;0.000;0.001;-0.001;-4.500;-45.700;-159.000;946.5;0.00000;0.00000;0.0;0.0
20190311_212855;-0.180;-0.036;9.757;0.001;0.002;-0.001;-4.500;-45.600;-159.000;946.5;0.00000;0.00000;0.0;0.0
20190311_212855;-0.192;-0.036;9.757;0.001;-0.001;-0.001;-4.600;-45.600;-158.900;946.5;0.00000;0.00000;0.0;0.0
20190311_212855;-0.204;-0.017;9.754;0.001;0.002;-0.000;-4.600;-45.600;-158.900;946.5;0.00000;0.00000;0.0;0.0
20190311_212855;-0.177;-0.026;9.757;0.001;0.001;-0.001;-4.800;-45.500;-159.000;946.5;0.00000;0.00000;0.0;0.0
20190311_212855;-0.187;-0.029;9.759;-0.002;0.001;-0.000;-4.800;-45.500;-158.900;946.5;0.00000;0.00000;0.0;0.0
20190311_212855;-0.184;-0.038;9.757;0.003;0.001;-0.001;-4.900;-45.500;-158.700;946.5;0.00000;0.00000;0.0;0.0
20190311_212855;-0.189;-0.031;9.759;0.001;-0.000;-0.000;-4.700;-45.500;-158.700;946.5;0.00000;0.00000;0.0;0.0
20190311_212855;-0.182;-0.017;9.761;-0.000;0.001;-0.001;-4.600;-45.500;-158.700;946.5;0.00000;0.00000;0.0;0.0
20190311_212855;-0.187;-0.036;9.757;0.000;0.002;-0.002;-4.700;-45.500;-158.800;946.5;0.00000;0.00000;0.0;0.0
20190311_212856;-0.194;-0.026;9.754;0.001;0.002;0.001;-4.500;-45.500;-158.700;946.5;0.00000;0.00000;0.0;0.0
20190311_212856;-0.192;-0.029;9.757;0.001;-0.000;-0.001;-4.500;-45.500;-158.800;946.5;0.00000;0.00000;0.0;0.0
20190311_212856;-0.196;-0.029;9.757;0.001;-0.001;0.001;-4.600;-45.600;-159.000;946.5;0.00000;0.00000;0.0;0.0
20190311_212856;-0.194;-0.034;9.759;0.000;-0.000;-0.001;-4.700;-45.600;-159.200;946.5;0.00000;0.00000;0.0;0.0
20190311_212856;-0.199;-0.034;9.754;-0.001;-0.001;-0.001;-4.700;-45.600;-158.900;946.5;0.00000;0.00000;0.0;0.0
20190311_212856;-0.175;-0.024;9.757;0.000;0.001;-0.001;-4.800;-45.600;-159.100;946.5;0.00000;0.00000;0.0;0.0
20190311_212856;-0.204;-0.022;9.757;-0.000;-0.000;-0.000;-4.900;-45.600;-159.100;946.5;0.00000;0.00000;0.0;0.0
20190311_212856;-0.196;-0.038;9.754;0.000;0.001;-0.001;-5.000;-45.700;-158.800;946.5;0.00000;0.00000;0.0;0.0
20190311_212856;-0.177;-0.029;9.757;0.000;0.001;0.002;-5.100;-45.700;-158.900;946.5;0.00000;0.00000;0.0;0.0
20190311_212856;-0.196;-0.024;9.757;0.001;-0.001;-0.001;-4.900;-45.600;-159.100;946.5;0.00000;0.00000;0.0;0.0
20190311_212856;-0.201;-0.024;9.757;0.001;-0.000;-0.000;-4.900;-45.600;-158.900;946.5;0.00000;0.00000;0.0;0.0
20190311_212856;-0.201;-0.029;9.757;0.000;-0.002;0.000;-4.800;-45.500;-159.000;946.5;0.00000;0.00000;0.0;0.0
20190311_212856;-0.206;-0.022;9.752;0.001;0.001;0.001;-4.900;-45.500;-159.000;946.5;0.00000;0.00000;0.0;0.0
20190311_212856;-0.177;-0.034;9.757;0.000;0.002;0.000;-4.800;-45.500;-158.900;946.5;0.00000;0.00000;0.0;0.0
20190311_212856;-0.189;-0.029;9.759;0.000;0.002;-0.001;-4.800;-45.500;-158.900;946.5;0.00000;0.00000;0.0;0.0
20190311_212856;-0.208;-0.038;9.757;0.000;0.002;-0.000;-4.900;-45.400;-159.000;946.5;0.00000;0.00000;0.0;0.0
20190311_212857;-0.184;-0.038;9.754;0.000;0.001;-0.001;-4.900;-45.400;-159.100;946.5;0.00000;0.00000;0.0;0.0
20190311_212857;-0.196;-0.026;9.757;0.000;-0.001;-0.001;-4.800;-45.400;-158.900;946.5;0.00000;0.00000;0.0;0.0
20190311_212857;-0.192;-0.045;9.757;0.002;0.001;0.001;-4.900;-45.500;-159.100;946.5;0.00000;0.00000;0.0;0.0
20190311_212857;-0.172;-0.043;9.757;-0.000;-0.000;0.001;-4.900;-45.500;-159.000;946.5;0.00000;0.00000;0.0;0.0
20190311_212857;-0.208;-0.026;9.757;0.000;0.001;0.000;-4.700;-45.600;-158.900;946.5;0.00000;0.00000;0.0;0.0
20190311_212857;-0.196;-0.019;9.757;0.001;-0.001;0.000;-4.700;-45.600;-159.000;946.5;0.00000;0.00000;0.0;0.0
20190311_212857;-0.187;-0.043;9.757;-0.001;0.001;0.000;-4.600;-45.500;-159.200;946.5;0.00000;0.00000;0.0;0.0
20190311_212857;-0.180;-0.041;9.757;0.000;0.001;-0.000;-4.700;-45.500;-159.200;946.5;0.00000;0.00000;0.0;0.0
20190311_212857;-0.201;-0.024;9.757;-0.001;-0.001;-0.000;-4.700;-45.500;-159.200;946.5;0.00000;0.00000;0.0;0.0
20190311_212857;-0.184;-0.036;9.757;0.003;0.001;-0.002;-5.000;-45.500;-159.000;946.5;0.00000;0.00000;0.0;0.0
20190311_212857;-0.182;-0.014;9.757;0.002;0.002;0.000;-4.900;-45.500;-159.000;946.5;0.00000;0.00000;0.0;0.0
20190311_212857;-0.192;-0.031;9.757;0.001;-0.001;0.001;-4.900;-45.600;-158.900;946.5;0.00000;0.00000;0.0;0.0
20190311_212857;-0.192;-0.036;9.757;0.001;0.002;0.000;-4.900;-45.600;-158.800;946.5;0.00000;0.00000;0.0;0.0
20190311_212857;-0.201;-0.019;9.749;0.000;0.001;0.001;-5.000;-45.600;-158.700;946.5;0.00000;0.00000;0.0;0.0
20190311_212857;-0.189;-0.034;9.754;0.001;-0.001;0.001;-4.700;-45.700;-158.800;946.5;0.00000;0.00000;0.0;0.0
20190311_212857;-0.170;-0.041;9.757;0.002;-0.001;-0.001;-4.800;-45.700;-158.800;946.5;0.00000;0.00000;0.0;0.0
20190311_212857;-0.182;-0.036;9.757;-0.000;-0.001;-0.000;-4.600;-45.700;-158.700;946.5;0.00000;0.00000;0.0;0.0
20190311_212858;-0.208;-0.029;9.754;0.000;0.001;-0.001;-4.300;-45.700;-158.300;946.5;0.00000;0.00000;0.0;0.0
20190311_212858;-0.206;-0.026;9.757;0.002;-0.000;0.000;-4.000;-45.700;-158.000;946.5;0.00000;0.00000;0.0;0.0
20190311_212858;-0.192;-0.026;9.757;0.001;-0.000;0.001;-4.200;-45.700;-158.100;946.5;0.00000;0.00000;0.0;0.0
20190311_212858;-0.196;-0.017;9.757;0.001;0.001;0.000;-4.000;-45.700;-158.000;946.5;0.00000;0.00000;0.0;0.0
20190311_212858;-0.194;-0.045;9.757;0.001;-0.002;-0.001;-4.300;-45.700;-158.100;946.5;0.00000;0.00000;0.0;0.0
20190311_212858;-0.184;-0.022;9.759;-0.000;-0.000;-0.001;-4.700;-45.700;-158.800;946.5;0.00000;0.00000;0.0;0.0
20190311_212858;-0.172;-0.048;9.759;0.000;-0.001;0.000;-4.700;-45.700;-159.100;946.5;0.00000;0.00000;0.0;0.0
20190311_212858;-0.184;-0.026;9.757;0.001;-0.000;0.000;-4.600;-45.600;-159.100;946.5;0.00000;0.00000;0.0;0.0
20190311_212858;-0.180;-0.041;9.754;0.004;0.001;0.002;-4.700;-45.600;-159.100;946.5;0.00000;0.00000;0.0;0.0
20190311_212858;-0.199;-0.029;9.757;-0.001;0.002;0.000;-4.600;-45.600;-159.300;946.5;0.00000;0.00000;0.0;0.0
20190311_212858;-0.187;-0.024;9.757;-0.002;0.002;-0.001;-4.600;-45.600;-159.400;946.5;0.00000;0.00000;0.0;0.0
20190311_212858;-0.204;-0.026;9.757;-0.002;-0.001;-0.001;-4.800;-45.600;-159.300;946.5;0.00000;0.00000;0.0;0.0
20190311_212858;-0.182;-0.031;9.757;-0.001;-0.000;0.000;-5.000;-45.600;-159.300;946.5;0.00000;0.00000;0.0;0.0
20190311_212858;-0.180;-0.041;9.757;-0.001;-0.000;0.001;-4.900;-45.600;-159.000;946.5;0.00000;0.00000;0.0;0.0
20190311_212858;-0.196;-0.034;9.757;0.003;-0.000;-0.001;-4.900;-45.700;-158.700;946.5;0.00000;0.00000;0.0;0.0
20190311_212858;-0.201;-0.012;9.757;0.001;0.002;-0.000;-4.900;-45.600;-158.400;946.5;0.00000;0.00000;0.0;0.0
20190311_212858;-0.199;-0.031;9.759;-0.001;-0.001;-0.001;-4.700;-45.600;-158.400;946.5;0.00000;0.00000;0.0;0.0
20190311_212859;-0.206;-0.038;9.754;0.002;0.001;-0.000;-4.500;-45.600;-158.400;946.5;0.00000;0.00000;0.0;0.0
20190311_212859;-0.211;-0.022;9.757;0.000;-0.002;-0.001;-4.600;-45.600;-158.400;946.5;0.00000;0.00000;0.0;0.0
20190311_212859;-0.187;-0.034;9.757;0.001;-0.001;-0.001;-4.600;-45.600;-158.600;946.5;0.00000;0.00000;0.0;0.0
20190311_212859;-0.208;-0.031;9.757;0.001;0.001;-0.000;-4.600;-45.600;-158.500;946.5;0.00000;0.00000;0.0;0.0
20190311_212859;-0.201;-0.022;9.754;0.001;0.001;-0.001;-4.700;-45.600;-158.400;946.5;0.00000;0.00000;0.0;0.0
20190311_212859;-0.170;-0.043;9.754;0.000;0.001;-0.001;-4.900;-45.500;-158.400;946.5;0.00000;0.00000;0.0;0.0
20190311_212859;-0.184;-0.031;9.757;0.000;0.001;-0.001;-4.700;-45.500;-158.500;946.5;0.00000;0.00000;0.0;0.0
20190311_212859;-0.189;-0.034;9.757;-0.002;0.001;-0.001;-4.800;-45.500;-158.600;946.5;0.00000;0.00000;0.0;0.0
20190311_212859;-0.192;-0.026;9.757;-0.001;-0.001;0.000;-4.700;-45.400;-158.500;946.5;0.00000;0.00000;0.0;0.0
20190311_212859;-0.189;-0.036;9.752;0.001;0.001;0.000;-4.800;-45.500;-158.500;946.5;0.00000;0.00000;0.0;0.0
20190311_212859;-0.184;-0.022;9.757;-0.002;-0.000;0.000;-4.800;-45.500;-158.400;946.5;0.00000;0.00000;0.0;0.0
20190311_212859;-0.177;-0.031;9.757;0.000;0.002;0.000;-4.800;-45.700;-158.400;946.5;0.00000;0.00000;0.0;0.0
20190311_212859;-0.187;-0.041;9.757;-0.001;-0.001;-0.001;-4.700;-45.600;-158.400;946.5;0.00000;0.00000;0.0;0.0
20190311_212859;-0.201;-0.024;9.754;0.001;0.001;-0.000;-4.800;-45.700;-158.300;946.5;0.00000;0.00000;0.0;0.0
20190311_212859;-0.192;-0.036;9.757;-0.001;0.001;0.001;-4.800;-45.700;-158.400;946.5;0.00000;0.00000;0.0;0.0
20190311_212859;-0.172;-0.034;9.757;-0.001;-0.001;0.001;-4.500;-45.700;-158.300;946.5;0.00000;0.00000;0.0;0.0
20190311_212900;-0.184;-0.038;9.754;-0.001;0.002;0.001;-4.300;-45.600;-158.100;946.5;0.00000;0.00000;0.0;0.0
20190311_212900;-0.196;-0.034;9.757;-0.001;-0.000;-0.001;-3.900;-45.600;-157.700;946.5;0.00000;0.00000;0.0;0.0
20190311_212900;-0.196;-0.026;9.757;-0.001;0.002;0.000;-3.800;-45.600;-157.700;946.5;0.00000;0.00000;0.0;0.0
20190311_212900;-0.187;-0.014;9.757;-0.001;-0.001;0.000;-4.000;-45.600;-157.700;946.5;0.00000;0.00000;0.0;0.0
20190311_212900;-0.180;-0.029;9.759;0.001;0.001;0.000;-4.200;-45.500;-158.000;946.5;0.00000;0.00000;0.0;0.0
20190311_212900;-0.196;-0.041;9.757;0.000;0.001;-0.001;-4.300;-45.600;-158.400;946.5;0.00000;0.00000;0.0;0.0
20190311_212900;-0.192;-0.026;9.754;0.000;-0.001;-0.000;-4.700;-45.600;-158.800;946.5;0.00000;0.00000;0.0;0.0
20190311_212900;-0.201;-0.036;9.754;-0.001;0.001;-0.000;-4.800;-45.700;-158.900;946.5;0.00000;0.00000;0.0;0.0
20190311_212900;-0.208;-0.022;9.759;0.002;0.002;-0.002;-4.800;-45.700;-159.000;946.5;0.00000;0.00000;0.0;0.0
20190311_212900;-0.182;-0.036;9.757;0.001;-0.001;-0.002;-4.900;-45.700;-159.000;946.5;0.00000;0.00000;0.0;0.0
20190311_212900;-0.199;-0.024;9.757;0.002;-0.001;-0.001;-4.800;-45.600;-159.100;946.5;0.00000;0.00000;0.0;0.0
20190311_212900;-0.192;-0.045;9.754;0.001;0.001;-0.001;-4.800;-45.600;-159.200;946.5;0.00000;0.00000;0.0;0.0
20190311_212900;-0.194;-0.026;9.757;0.001;0.001;0.000;-4.900;-45.600;-159.400;946.5;0.00000;0.00000;0.0;0.0
20190311_212900;-0.196;-0.017;9.757;-0.002;-0.000;-0.001;-4.800;-45.600;-159.300;946.5;0.00000;0.00000;0.0;0.0
20190311_212900;-0.199;-0.017;9.757;-0.003;0.001;0.001;-4.800;-45.600;-159.300;946.5;0.00000;0.00000;0.0;0.0
20190311_212900;-0.192;-0.029;9.759;0.000;-0.001;-0.001;-4.700;-45.700;-159.200;946.5;0.00000;0.00000;0.0;0.0
20190311_212900;-0.175;-0.041;9.757;-0.001;0.003;-0.000;-4.700;-45.700;-159.000;946.5;0.00000;0.00000;0.0;0.0
20190311_212901;-0.170;-0.034;9.759;0.002;0.001;-0.001;-4.800;-45.800;-158.800;946.5;0.00000;0.00000;0.0;0.0
20190311_212901;-0.187;-0.041;9.757;-0.001;0.001;0.001;-4.700;-45.800;-158.900;946.5;0.00000;0.00000;0.0;0.0
20190311_212901;-0.199;-0.026;9.757;-0.001;0.001;-0.001;-4.400;-45.800;-158.500;946.5;0.00000;0.00000;0.0;0.0
20190311_212901;-0.187;-0.034;9.759;0.001;-0.001;0.000;-4.300;-45.800;-158.200;946.5;0.00000;0.00000;0.0;0.0
20190311_212901;-0.194;-0.022;9.757;-0.002;0.001;-0.000;-4.300;-45.700;-158.000;946.5;0.00000;0.00000;0.0;0.0
20190311_212901;-0.199;-0.034;9.757;0.000;0.002;0.001;-4.200;-45.600;-158.200;946.5;0.00000;0.00000;0.0;0.0
20190311_212901;-0.187;-0.038;9.759;-0.001;-0.001;0.001;-4.300;-45.600;-158.300;946.5;0.00000;0.00000;0.0;0.0
20190311_212901;-0.192;-0.029;9.757;-0.001;-0.000;0.001;-4.700;-45.500;-158.800;946.5;0.00000;0.00000;0.0;0.0
20190311_212901;-0.189;-0.043;9.757;-0.001;0.001;-0.001;-4.700;-45.600;-158.900;946.5;0.00000;0.00000;0.0;0.0
20190311_212901;-0.187;-0.019;9.759;-0.001;0.001;0.002;-4.800;-45.700;-159.200;946.5;0.00000;0.00000;0.0;0.0
20190311_212901;-0.175;-0.041;9.757;0.000;-0.000;-0.001;-4.800;-45.700;-159.100;946.5;0.00000;0.00000;0.0;0.0
20190311_212901;-0.196;-0.038;9.754;0.001;0.002;0.000;-4.700;-45.700;-158.900;946.5;0.00000;0.00000;0.0;0.0
20190311_212901;-0.215;-0.022;9.757;0.001;0.001;-0.001;-4.800;-45.800;-158.900;946.5;0.00000;0.00000;0.0;0.0
20190311_212901;-0.182;-0.036;9.759;-0.001;0.001;0.000;-4.900;-45.600;-158.800;946.5;0.00000;0.00000;0.0;0.0
20190311_212901;-0.194;-0.024;9.754;0.001;-0.000;-0.000;-4.800;-45.600;-158.800;946.5;0.00000;0.00000;0.0;0.0
20190311_212901;-0.180;-0.038;9.759;0.001;-0.001;-0.000;-4.700;-45.600;-158.800;946.5;0.00000;0.00000;0.0;0.0
20190311_212901;-0.194;-0.026;9.757;0.000;0.001;0.001;-4.800;-45.500;-158.900;946.5;0.00000;0.00000;0.0;0.0
20190311_212902;-0.196;-0.029;9.757;0.002;-0.000;0.000;-4.700;-45.400;-158.700;946.5;0.00000;0.00000;0.0;0.0
20190311_212902;-0.208;-0.026;9.757;-0.001;-0.001;0.001;-4.500;-45.500;-158.800;946.5;0.00000;0.00000;0.0;0.0
20190311_212902;-0.201;-0.034;9.757;0.001;0.001;-0.001;-4.600;-45.400;-158.800;946.5;0.00000;0.00000;0.0;0.0
20190311_212902;-0.189;-0.012;9.754;0.001;0.001;0.001;-4.700;-45.500;-158.700;946.5;0.00000;0.00000;0.0;0.0
20190311_212902;-0.184;-0.041;9.757;-0.001;0.001;0.000;-4.600;-45.400;-158.700;946.5;0.00000;0.00000;0.0;0.0
20190311_212902;-0.199;-0.036;9.757;-0.001;0.001;0.000;-4.700;-45.500;-158.700;946.5;0.00000;0.00000;0.0;0.0
20190311_212902;-0.187;-0.022;9.757;0.002;-0.002;0.002;-4.900;-45.500;-158.900;946.5;0.00000;0.00000;0.0;0.0
20190311_212902;-0.215;-0.024;9.757;-0.001;-0.001;0.000;-5.000;-45.500;-158.900;946.5;0.00000;0.00000;0.0;0.0
20190311_212902;-0.199;-0.024;9.757;-0.001;-0.001;-0.000;-5.000;-45.400;-158.700;946.5;0.00000;0.00000;0.0;0.0
20190311_212902;-0.182;-0.038;9.757;0.002;-0.001;0.000;-5.100;-45.500;-158.800;946.5;0.00000;0.00000;0.0;0.0
20190311_212902;-0.206;-0.038;9.754;-0.002;-0.000;0.001;-5.100;-45.400;-159.100;946.5;0.00000;0.00000;0.0;0.0
20190311_212902;-0.192;-0.029;9.757;0.001;-0.002;-0.002;-5.100;-45.500;-159.000;946.5;0.00000;0.00000;0.0;0.0
20190311_212902;-0.189;-0.036;9.757;-0.001;0.001;0.000;-4.900;-45.500;-158.900;946.5;0.00000;0.00000;0.0;0.0
20190311_212902;-0.180;-0.036;9.757;0.001;-0.002;-0.001;-5.000;-45.500;-158.900;946.5;0.00000;0.00000;0.0;0.0
20190311_212902;-0.194;-0.053;9.757;0.003;0.000;0.000;-4.900;-45.500;-158.800;946.5;0.00000;0.00000;0.0;0.0
20190311_212902;-0.184;-0.026;9.757;-0.000;-0.000;-0.001;-4.900;-45.600;-158.600;946.5;0.00000;0.00000;0.0;0.0
20190311_212903;-0.189;-0.026;9.757;-0.001;-0.000;-0.001;-4.900;-45.500;-158.600;946.5;0.00000;0.00000;0.0;0.0
20190311_212903;-0.206;-0.026;9.757;0.001;-0.002;-0.001;-4.700;-45.500;-158.700;946.5;0.00000;0.00000;0.0;0.0
20190311_212903;-0.184;-0.043;9.757;-0.001;0.000;0.002;-4.600;-45.400;-158.700;946.5;0.00000;0.00000;0.0;0.0
20190311_212903;-0.184;-0.041;9.759;-0.000;-0.000;-0.001;-4.700;-45.400;-158.800;946.5;0.00000;0.00000;0.0;0.0
20190311_212903;-0.192;-0.034;9.759;-0.000;-0.003;0.003;-4.700;-45.400;-158.800;946.5;0.00000;0.00000;0.0;0.0
20190311_212903;-0.199;-0.022;9.759;0.003;-0.000;-0.000;-4.700;-45.500;-159.100;946.5;0.00000;0.00000;0.0;0.0
20190311_212903;-0.177;-0.036;9.757;-0.000;-0.000;0.001;-4.800;-45.500;-159.100;946.5;0.00000;0.00000;0.0;0.0
20190311_212903;-0.189;-0.038;9.757;0.001;-0.000;-0.000;-4.700;-45.500;-159.100;946.5;0.00000;0.00000;0.0;0.0
20190311_212903;-0.194;-0.034;9.757;-0.001;-0.001;-0.000;-4.700;-45.500;-159.000;946.5;0.00000;0.00000;0.0;0.0
20190311_212903;-0.184;-0.029;9.759;-0.000;-0.001;0.000;-4.700;-45.500;-159.000;946.5;0.00000;0.00000;0.0;0.0
20190311_212903;-0.192;-0.012;9.711;-0.001;-0.003;0.000;-4.900;-45.500;-158.800;946.5;0.00000;0.00000;0.0;0.0
20190311_212903;-0.187;-0.034;9.757;-0.000;-0.000;0.001;-4.900;-45.400;-158.700;946.5;0.00000;0.00000;0.0;0.0
20190311_212903;-0.189;-0.031;9.757;0.002;0.000;0.001;-5.000;-45.500;-158.700;946.5;0.00000;0.00000;0.0;0.0
20190311_212903;-0.163;-0.031;9.757;-0.000;-0.003;-0.001;-5.000;-45.500;-158.700;946.5;0.00000;0.00000;0.0;0.0
20190311_212903;-0.192;-0.036;9.757;-0.000;-0.002;-0.001;-5.000;-45.500;-158.700;946.5;0.00000;0.00000;0.0;0.0
20190311_212903;-0.194;-0.024;9.757;0.001;0.001;0.000;-4.800;-45.600;-158.400;946.5;0.00000;0.00000;0.0;0.0
20190311_212903;-0.172;-0.024;9.757;0.002;-0.002;0.000;-4.700;-45.600;-158.500;946.5;0.00000;0.00000;0.0;0.0
20190311_212904;-0.192;-0.024;9.757;0.001;-0.000;0.000;-4.700;-45.700;-158.400;946.5;0.00000;0.00000;0.0;0.0
20190311_212904;-0.180;-0.048;9.757;0.003;-0.002;-0.001;-4.700;-45.700;-158.600;946.5;0.00000;0.00000;0.0;0.0
20190311_212904;-0.192;-0.045;9.757;-0.000;-0.000;-0.003;-4.700;-45.700;-158.700;946.5;0.00000;0.00000;0.0;0.0
20190311_212904;-0.184;-0.022;9.757;0.001;0.001;-0.001;-4.500;-45.700;-158.600;946.5;0.00000;0.00000;0.0;0.0
20190311_212904;-0.172;-0.017;9.757;-0.000;0.001;0.001;-4.300;-45.600;-158.300;946.5;0.00000;0.00000;0.0;0.0
20190311_212904;-0.187;-0.031;9.759;0.001;-0.001;-0.000;-4.200;-45.700;-157.900;946.5;0.00000;0.00000;0.0;0.0
20190311_212904;-0.204;-0.034;9.757;-0.000;-0.000;-0.001;-4.100;-45.700;-157.800;946.5;0.00000;0.00000;0.0;0.0
20190311_212904;-0.187;-0.010;9.757;0.001;-0.000;0.001;-4.200;-45.700;-158.000;946.5;0.00000;0.00000;0.0;0.0
20190311_212904;-0.180;-0.069;9.757;0.003;-0.000;0.000;-4.500;-45.700;-158.400;946.5;0.00000;0.00000;0.0;0.0
20190311_212904;-0.180;-0.007;9.757;0.001;-0.000;0.001;-4.600;-45.800;-158.800;946.5;0.00000;0.00000;0.0;0.0
20190311_212904;-0.201;-0.045;9.754;0.001;0.000;-0.001;-4.700;-45.700;-159.000;946.5;0.00000;0.00000;0.0;0.0
20190311_212904;-0.172;-0.029;9.757;-0.002;-0.000;-0.001;-4.800;-45.700;-159.100;946.5;0.00000;0.00000;0.0;0.0
20190311_212904;-0.189;-0.029;9.757;-0.000;-0.000;0.001;-4.700;-45.700;-159.000;946.5;0.00000;0.00000;0.0;0.0
20190311_212904;-0.196;-0.024;9.757;0.001;0.000;0.001;-4.800;-45.600;-158.900;946.5;0.00000;0.00000;0.0;0.0
20190311_212904;-0.182;-0.031;9.757;-0.002;0.001;0.000;-4.800;-45.600;-158.900;946.5;0.00000;0.00000;0.0;0.0
20190311_212904;-0.196;-0.022;9.754;-0.002;-0.001;0.000;-4.700;-45.500;-158.800;946.5;0.00000;0.00000;0.0;0.0
20190311_212905;-0.196;-0.029;9.754;-0.002;0.002;-0.001;-4.800;-45.500;-159.000;946.5;0.00000;0.00000;0.0;0.0
20190311_212905;-0.189;-0.041;9.757;-0.001;0.002;-0.003;-4.900;-45.500;-159.100;946.5;0.00000;0.00000;0.0;0.0
20190311_212905;-0.175;-0.055;9.757;-0.002;0.003;0.002;-4.700;-45.400;-159.100;946.5;0.00000;0.00000;0.0;0.0
20190311_212905;-0.196;-0.029;9.759;-0.001;0.002;-0.001;-4.500;-45.400;-158.700;946.5;0.00000;0.00000;0.0;0.0
20190311_212905;-0.204;-0.026;9.757;-0.001;0.001;-0.001;-4.300;-45.400;-158.300;946.5;0.00000;0.00000;0.0;0.0
20190311_212905;-0.177;-0.026;9.757;-0.001;-0.000;0.000;-3.900;-45.400;-157.800;946.5;0.00000;0.00000;0.0;0.0
20190311_212905;-0.211;0.000;9.757;-0.000;0.001;-0.000;-3.800;-45.400;-157.700;946.5;0.00000;0.00000;0.0;0.0
20190311_212905;-0.196;-0.031;9.757;-0.000;0.000;0.000;-4.100;-45.500;-157.900;946.5;0.00000;0.00000;0.0;0.0
20190311_212905;-0.206;-0.043;9.757;-0.000;-0.000;-0.000;-4.400;-45.500;-158.300;946.5;0.00000;0.00000;0.0;0.0
20190311_212905;-0.184;-0.038;9.757;0.002;-0.001;-0.000;-4.700;-45.500;-158.800;946.5;0.00000;0.00000;0.0;0.0
20190311_212905;-0.189;-0.024;9.757;-0.000;0.000;0.001;-5.000;-45.500;-159.200;946.5;0.00000;0.00000;0.0;0.0
20190311_212905;-0.201;-0.017;9.757;0.001;0.000;0.000;-5.000;-45.500;-159.100;946.5;0.00000;0.00000;0.0;0.0
20190311_212905;-0.172;-0.036;9.757;-0.000;-0.001;-0.000;-4.800;-45.500;-159.100;946.5;0.00000;0.00000;0.0;0.0
20190311_212905;-0.184;-0.034;9.757;-0.000;-0.001;0.000;-4.700;-45.500;-159.000;946.5;0.00000;0.00000;0.0;0.0
20190311_212905;-0.170;-0.036;9.757;-0.001;-0.000;-0.000;-4.600;-45.500;-158.900;946.5;0.00000;0.00000;0.0;0.0
20190311_212905;-0.175;-0.048;9.757;0.001;-0.001;0.002;-4.700;-45.500;-159.100;946.5;0.00000;0.00000;0.0;0.0
20190311_212905;-0.182;-0.026;9.757;-0.001;0.000;-0.000;-4.700;-45.500;-159.100;946.5;0.00000;0.00000;0.0;0.0
20190311_212906;-0.199;-0.036;9.757;0.001;0.000;0.001;-4.900;-45.400;-159.100;946.5;0.00000;0.00000;0.0;0.0
20190311_212906;-0.182;-0.034;9.757;-0.001;-0.001;-0.000;-4.900;-45.500;-159.100;946.5;0.00000;0.00000;0.0;0.0
20190311_212906;-0.196;-0.043;9.757;0.001;0.001;-0.001;-5.000;-45.400;-159.300;946.5;0.00000;0.00000;0.0;0.0
20190311_212906;-0.199;-0.031;9.740;0.001;-0.000;-0.001;-5.000;-45.500;-159.300;946.5;0.00000;0.00000;0.0;0.0
20190311_212906;-0.189;-0.036;9.757;0.001;-0.003;-0.001;-4.900;-45.500;-159.400;946.5;0.00000;0.00000;0.0;0.0
20190311_212906;-0.184;-0.048;9.757;-0.001;-0.000;-0.000;-4.800;-45.400;-159.400;946.5;0.00000;0.00000;0.0;0.0
20190311_212906;-0.199;-0.022;9.757;-0.000;-0.000;0.002;-4.700;-45.500;-159.500;946.5;0.00000;0.00000;0.0;0.0
20190311_212906;-0.182;-0.024;9.757;-0.000;0.000;0.002;-4.600;-45.500;-159.300;946.5;0.00000;0.00000;0.0;0.0
20190311_212906;-0.192;-0.024;9.757;-0.000;-0.000;0.000;-4.600;-45.500;-159.200;946.5;0.00000;0.00000;0.0;0.0
20190311_212906;-0.189;-0.031;9.757;-0.002;0.000;0.001;-4.600;-45.600;-159.200;946.5;0.00000;0.00000;0.0;0.0
20190311_212906;-0.184;-0.029;9.759;-0.002;0.002;0.001;-4.500;-45.600;-159.000;946.5;0.00000;0.00000;0.0;0.0
20190311_212906;-0.189;-0.029;9.757;0.001;0.001;0.000;-4.700;-45.500;-159.000;946.5;0.00000;0.00000;0.0;0.0
20190311_212906;-0.196;-0.038;9.757;0.001;0.001;0.001;-4.800;-45.500;-159.000;946.5;0.00000;0.00000;0.0;0.0
20190311_212906;-0.177;-0.036;9.757;-0.001;-0.000;0.000;-4.900;-45.500;-159.100;946.5;0.00000;0.00000;0.0;0.0
20190311_212906;-0.175;-0.031;9.757;-0.001;0.004;-0.000;-4.800;-45.500;-158.900;946.5;0.00000;0.00000;0.0;0.0
20190311_212906;-0.189;-0.026;9.757;-0.001;0.002;-0.001;-4.900;-45.500;-158.800;946.5;0.00000;0.00000;0.0;0.0
20190311_212907;-0.201;-0.036;9.754;-0.001;0.002;0.000;-4.800;-45.600;-158.800;946.5;0.00000;0.00000;0.0;0.0
20190311_212907;-0.189;-0.041;9.757;0.001;-0.002;-0.001;-4.800;-45.600;-158.700;946.5;0.00000;0.00000;0.0;0.0
20190311_212907;-0.168;-0.045;9.757;0.001;-0.001;-0.000;-4.700;-45.500;-158.500;946.5;0.00000;0.00000;0.0;0.0
20190311_212907;-0.189;-0.029;9.754;-0.002;0.001;-0.001;-4.800;-45.500;-158.800;946.5;0.00000;0.00000;0.0;0.0
20190311_212907;-0.204;-0.029;9.754;-0.003;0.001;0.000;-4.800;-45.500;-158.800;946.5;0.00000;0.00000;0.0;0.0
20190311_212907;-0.192;-0.031;9.757;0.001;0.001;0.001;-4.800;-45.400;-158.700;946.5;0.00000;0.00000;0.0;0.0
20190311_212907;-0.168;-0.029;9.759;-0.001;0.001;0.000;-4.700;-45.400;-158.700;946.5;0.00000;0.00000;0.0;0.0
20190311_212907;-0.199;-0.029;9.757;-0.001;0.001;-0.001;-4.400;-45.500;-158.100;946.5;0.00000;0.00000;0.0;0.0
20190311_212907;-0.194;-0.022;9.757;0.001;-0.000;0.001;-4.300;-45.500;-157.900;946.6;0.00000;0.00000;0.0;0.0
20190311_212907;-0.184;-0.045;9.757;-0.001;-0.001;0.000;-4.600;-45.600;-157.900;946.6;0.00000;0.00000;0.0;0.0
20190311_212907;-0.189;-0.038;9.757;0.000;0.001;-0.002;-4.700;-45.600;-157.900;946.6;0.00000;0.00000;0.0;0.0
20190311_212907;-0.182;-0.034;9.757;0.001;0.001;-0.000;-4.800;-45.600;-158.000;946.6;0.00000;0.00000;0.0;0.0
20190311_212907;-0.187;-0.024;9.757;0.001;-0.001;0.000;-5.000;-45.600;-158.400;946.6;0.00000;0.00000;0.0;0.0
20190311_212907;-0.172;-0.029;9.757;-0.001;-0.000;0.001;-5.000;-45.600;-158.500;946.6;0.00000;0.00000;0.0;0.0
20190311_212907;-0.182;-0.043;9.757;0.000;-0.000;0.001;-4.800;-45.600;-158.500;946.6;0.00000;0.00000;0.0;0.0
20190311_212907;-0.156;-0.038;9.757;0.000;-0.000;0.002;-4.700;-45.600;-158.400;946.6;0.00000;0.00000;0.0;0.0
20190311_212907;-0.172;-0.034;9.759;-0.001;0.001;-0.000;-4.600;-45.500;-158.400;946.5;0.00000;0.00000;0.0;0.0
20190311_212908;-0.196;-0.034;9.757;0.002;-0.003;0.001;-4.700;-45.500;-158.600;946.5;0.00000;0.00000;0.0;0.0
20190311_212908;-0.204;-0.029;9.754;0.001;-0.001;0.001;-4.700;-45.500;-158.500;946.5;0.00000;0.00000;0.0;0.0
20190311_212908;-0.194;-0.022;9.757;-0.002;-0.001;0.002;-4.700;-45.400;-158.600;946.5;0.00000;0.00000;0.0;0.0
20190311_212908;-0.189;-0.041;9.754;-0.001;0.001;-0.001;-4.600;-45.400;-158.800;946.5;0.00000;0.00000;0.0;0.0
20190311_212908;-0.201;-0.026;9.757;-0.001;0.001;0.000;-4.500;-45.400;-158.800;946.5;0.00000;0.00000;0.0;0.0
20190311_212908;-0.201;-0.034;9.757;-0.001;0.001;-0.001;-4.400;-45.500;-158.800;946.5;0.00000;0.00000;0.0;0.0
20190311_212908;-0.170;-0.031;9.757;0.001;0.001;0.001;-4.500;-45.500;-158.900;946.5;0.00000;0.00000;0.0;0.0
20190311_212908;-0.194;-0.031;9.757;0.000;-0.000;0.000;-4.600;-45.500;-158.900;946.5;0.00000;0.00000;0.0;0.0
20190311_212908;-0.192;-0.026;9.757;0.001;0.002;0.000;-4.800;-45.400;-158.800;946.5;0.00000;0.00000;0.0;0.0
20190311_212908;-0.189;-0.031;9.757;-0.001;0.001;-0.003;-4.800;-45.400;-158.800;946.5;0.00000;0.00000;0.0;0.0
20190311_212908;-0.182;-0.026;9.757;-0.001;0.001;-0.000;-4.900;-45.400;-158.900;946.5;0.00000;0.00000;0.0;0.0
20190311_212908;-0.180;-0.010;9.757;-0.001;-0.001;-0.000;-4.900;-45.500;-158.900;946.5;0.00000;0.00000;0.0;0.0
20190311_212908;-0.206;-0.031;9.754;-0.001;-0.000;-0.000;-4.800;-45.400;-158.500;946.5;0.00000;0.00000;0.0;0.0
20190311_212908;-0.180;-0.041;9.757;-0.002;-0.001;-0.004;-4.600;-45.500;-158.500;946.5;0.00000;0.00000;0.0;0.0
20190311_212908;-0.196;-0.034;9.754;-0.002;-0.000;-0.001;-4.700;-45.500;-158.700;946.5;0.00000;0.00000;0.0;0.0
20190311_212908;-0.199;-0.034;9.757;-0.001;-0.000;-0.000;-4.600;-45.500;-158.800;946.5;0.00000;0.00000;0.0;0.0
20190311_212908;-0.194;-0.031;9.757;0.000;-0.001;-0.001;-4.700;-45.500;-158.900;946.5;0.00000;0.00000;0.0;0.0
20190311_212909;-0.184;-0.019;9.757;-0.001;0.001;-0.002;-4.700;-45.600;-159.100;946.5;0.00000;0.00000;0.0;0.0
20190311_212909;-0.170;-0.034;9.757;0.000;-0.001;0.000;-4.700;-45.500;-158.900;946.5;0.00000;0.00000;0.0;0.0
20190311_212909;-0.196;-0.029;9.757;-0.001;-0.001;-0.001;-4.700;-45.500;-158.800;946.5;0.00000;0.00000;0.0;0.0
20190311_212909;-0.189;-0.036;9.757;-0.001;0.001;0.000;-4.700;-45.500;-158.800;946.5;0.00000;0.00000;0.0;0.0
20190311_212909;-0.189;-0.024;9.757;0.000;-0.002;0.001;-4.700;-45.500;-158.700;946.5;0.00000;0.00000;0.0;0.0
20190311_212909;-0.196;-0.026;9.754;0.003;-0.001;-0.000;-4.700;-45.500;-158.900;946.5;0.00000;0.00000;0.0;0.0
20190311_212909;-0.189;-0.034;9.757;-0.001;-0.000;0.000;-4.800;-45.600;-159.000;946.5;0.00000;0.00000;0.0;0.0
20190311_212909;-0.189;-0.031;9.757;0.001;-0.000;0.001;-4.700;-45.600;-159.000;946.5;0.00000;0.00000;0.0;0.0
20190311_212909;-0.180;-0.022;9.757;-0.001;0.002;0.001;-4.600;-45.600;-159.000;946.5;0.00000;0.00000;0.0;0.0
20190311_212909;-0.182;-0.019;9.757;0.000;-0.001;0.000;-4.600;-45.600;-159.000;946.5;0.00000;0.00000;0.0;0.0
20190311_212909;-0.180;-0.036;9.757;0.001;0.001;0.000;-4.700;-45.600;-158.900;946.5;0.00000;0.00000;0.0;0.0
20190311_212909;-0.189;-0.036;9.757;0.002;0.001;0.000;-4.800;-45.500;-158.900;946.5;0.00000;0.00000;0.0;0.0
20190311_212909;-0.189;-0.022;9.757;0.000;-0.001;-0.000;-4.900;-45.500;-158.800;946.6;0.00000;0.00000;0.0;0.0
20190311_212909;-0.206;-0.038;9.757;-0.002;-0.000;0.000;-4.900;-45.500;-158.700;946.6;0.00000;0.00000;0.0;0.0
20190311_212909;-0.196;-0.029;9.757;-0.001;-0.001;0.002;-4.900;-45.500;-158.600;946.5;0.00000;0.00000;0.0;0.0
20190311_212909;-0.177;-0.031;9.757;0.000;0.001;-0.001;-4.800;-45.400;-158.500;946.5;0.00000;0.00000;0.0;0.0
20190311_212910;-0.192;-0.043;9.754;-0.001;0.001;-0.001;-4.800;-45.400;-158.700;946.6;0.00000;0.00000;0.0;0.0
20190311_212910;-0.196;-0.034;9.754;-0.001;-0.000;-0.000;-4.900;-45.400;-158.800;946.6;0.00000;0.00000;0.0;0.0
20190311_212910;-0.180;-0.031;9.759;0.001;-0.001;0.000;-4.800;-45.400;-158.800;946.6;0.00000;0.00000;0.0;0.0
20190311_212910;-0.192;-0.022;9.754;-0.002;-0.001;0.001;-4.800;-45.400;-158.900;946.6;0.00000;0.00000;0.0;0.0
20190311_212910;-0.189;-0.024;9.757;-0.001;-0.000;0.000;-4.800;-45.600;-158.800;946.6;0.00000;0.00000;0.0;0.0
20190311_212910;-0.172;-0.014;9.759;0.001;0.001;-0.000;-4.400;-45.600;-158.500;946.6;0.00000;0.00000;0.0;0.0
20190311_212910;-0.208;-0.029;9.757;0.001;-0.001;0.001;-4.000;-45.600;-158.100;946.6;0.00000;0.00000;0.0;0.0
20190311_212910;-0.201;-0.022;9.757;0.001;0.002;-0.000;-3.700;-45.600;-157.900;946.6;0.00000;0.00000;0.0;0.0
20190311_212910;-0.180;-0.029;9.757;0.002;0.001;0.000;-3.400;-45.700;-157.400;946.6;0.00000;0.00000;0.0;0.0
20190311_212910;-0.189;-0.043;9.754;0.000;0.001;-0.001;-3.100;-45.700;-157.300;946.6;0.00000;0.00000;0.0;0.0
20190311_212910;-0.201;-0.031;9.757;0.001;0.001;0.000;-3.300;-45.700;-157.500;946.5;0.00000;0.00000;0.0;0.0
20190311_212910;-0.172;-0.031;9.757;0.001;0.001;-0.001;-3.500;-45.800;-157.700;946.5;0.00000;0.00000;0.0;0.0
20190311_212910;-0.177;-0.034;9.757;-0.001;-0.001;-0.001;-3.800;-45.700;-158.100;946.5;0.00000;0.00000;0.0;0.0
20190311_212910;-0.180;-0.031;9.757;0.001;-0.001;-0.001;-4.500;-45.700;-158.900;946.5;0.00000;0.00000;0.0;0.0
20190311_212910;-0.184;-0.029;9.757;-0.002;-0.000;-0.002;-4.700;-45.600;-159.200;946.6;0.00000;0.00000;0.0;0.0
20190311_212910;-0.199;-0.029;9.745;-0.000;0.001;-0.001;-4.800;-45.500;-159.200;946.6;0.00000;0.00000;0.0;0.0
20190311_212910;-0.182;-0.036;9.757;-0.001;-0.002;-0.001;-5.000;-45.500;-159.500;946.6;0.00000;0.00000;0.0;0.0
20190311_212911;-0.194;-0.041;9.757;0.002;-0.002;0.000;-4.900;-45.500;-159.400;946.6;0.00000;0.00000;0.0;0.0
20190311_212911;-0.194;-0.034;9.757;0.001;-0.000;-0.000;-4.900;-45.400;-159.400;946.6;0.00000;0.00000;0.0;0.0
20190311_212911;-0.180;-0.034;9.757;0.001;0.001;0.001;-5.000;-45.500;-159.300;946.5;0.00000;0.00000;0.0;0.0
20190311_212911;-0.194;-0.036;9.757;0.001;0.002;-0.000;-4.900;-45.500;-159.300;946.5;0.00000;0.00000;0.0;0.0
20190311_212911;-0.199;-0.022;9.757;-0.000;0.001;0.002;-4.700;-45.500;-159.200;946.6;0.00000;0.00000;0.0;0.0
20190311_212911;-0.182;-0.031;9.757;0.001;0.002;0.001;-4.800;-45.500;-159.200;946.6;0.00000;0.00000;0.0;0.0
20190311_212911;-0.192;-0.026;9.757;-0.001;-0.001;0.002;-4.800;-45.500;-159.200;946.5;0.00000;0.00000;0.0;0.0
20190311_212911;-0.184;-0.048;9.754;-0.001;-0.001;-0.001;-4.700;-45.500;-159.300;946.5;0.00000;0.00000;0.0;0.0
20190311_212911;-0.196;-0.048;9.757;0.001;-0.001;-0.000;-4.800;-45.500;-159.400;946.5;0.00000;0.00000;0.0;0.0
20190311_212911;-0.213;-0.026;9.749;-0.001;-0.000;-0.000;-5.000;-45.400;-159.500;946.5;0.00000;0.00000;0.0;0.0
20190311_212911;-0.208;-0.029;9.752;-0.001;0.001;0.001;-4.900;-45.300;-159.500;946.5;0.00000;0.00000;0.0;0.0
20190311_212911;-0.204;-0.024;9.757;-0.001;0.002;-0.001;-4.900;-45.300;-159.400;946.5;0.00000;0.00000;0.0;0.0
20190311_212911;-0.189;-0.034;9.757;0.001;-0.003;0.002;-5.000;-45.300;-159.300;946.5;0.00000;0.00000;0.0;0.0
20190311_212911;-0.194;-0.031;9.757;0.002;-0.000;0.002;-4.900;-45.200;-159.100;946.5;0.00000;0.00000;0.0;0.0
20190311_212911;-0.184;-0.031;9.757;0.001;-0.000;-0.001;-4.700;-45.400;-158.800;946.5;0.00000;0.00000;0.0;0.0
20190311_212911;-0.182;-0.048;9.757;0.002;0.001;-0.000;-4.700;-45.500;-158.700;946.5;0.00000;0.00000;0.0;0.0
20190311_212912;-0.192;-0.031;9.754;-0.001;0.001;-0.001;-4.800;-45.500;-158.800;946.5;0.00000;0.00000;0.0;0.0
20190311_212912;-0.187;-0.043;9.754;0.001;0.001;-0.000;-4.700;-45.500;-159.000;946.5;0.00000;0.00000;0.0;0.0
20190311_212912;-0.184;-0.031;9.757;-0.000;-0.001;0.000;-4.700;-45.500;-158.900;946.5;0.00000;0.00000;0.0;0.0
20190311_212912;-0.187;-0.038;9.757;-0.001;0.001;-0.001;-4.900;-45.300;-159.000;946.5;0.00000;0.00000;0.0;0.0
20190311_212912;-0.213;-0.024;9.754;0.001;0.001;-0.000;-5.000;-45.300;-159.000;946.5;0.00000;0.00000;0.0;0.0
20190311_212912;-0.192;-0.029;9.754;-0.000;0.002;-0.000;-4.900;-45.300;-158.900;946.5;0.00000;0.00000;0.0;0.0
20190311_212912;-0.194;-0.036;9.749;-0.001;0.001;-0.000;-4.900;-45.300;-158.900;946.5;0.00000;0.00000;0.0;0.0
20190311_212912;-0.184;-0.029;9.757;-0.000;0.001;-0.002;-4.900;-45.200;-159.000;946.5;0.00000;0.00000;0.0;0.0
20190311_212912;-0.187;-0.026;9.754;-0.001;0.001;-0.000;-4.800;-45.200;-159.100;946.5;0.00000;0.00000;0.0;0.0
20190311_212912;-0.187;-0.038;9.757;-0.000;0.001;0.002;-4.700;-45.200;-159.300;946.5;0.00000;0.00000;0.0;0.0
20190311_212912;-0.175;-0.048;9.757;0.001;-0.002;0.002;-4.800;-45.300;-159.400;946.5;0.00000;0.00000;0.0;0.0
20190311_212912;-0.184;-0.034;9.757;-0.001;0.002;-0.000;-4.700;-45.200;-159.200;946.5;0.00000;0.00000;0.0;0.0
20190311_212912;-0.201;-0.029;9.749;0.001;0.001;0.001;-4.700;-45.300;-159.300;946.5;0.00000;0.00000;0.0;0.0
20190311_212912;-0.208;-0.034;9.757;0.001;-0.000;0.002;-4.600;-45.300;-159.300;946.5;0.00000;0.00000;0.0;0.0
20190311_212912;-0.189;-0.034;9.757;0.001;0.001;0.000;-4.500;-45.300;-158.900;946.5;0.00000;0.00000;0.0;0.0
20190311_212912;-0.192;-0.038;9.757;-0.000;0.001;-0.001;-4.300;-45.300;-158.800;946.5;0.00000;0.00000;0.0;0.0
20190311_212912;-0.204;-0.026;9.757;-0.001;-0.001;0.000;-4.400;-45.400;-159.000;946.5;0.00000;0.00000;0.0;0.0
20190311_212913;-0.204;-0.029;9.757;-0.001;-0.000;-0.001;-4.400;-45.500;-158.800;946.5;0.00000;0.00000;0.0;0.0
20190311_212913;-0.187;-0.038;9.754;-0.001;0.001;0.000;-4.300;-45.600;-158.800;946.5;0.00000;0.00000;0.0;0.0
20190311_212913;-0.199;-0.026;9.752;0.002;-0.000;-0.001;-4.300;-45.600;-158.800;946.5;0.00000;0.00000;0.0;0.0
20190311_212913;-0.204;-0.034;9.757;-0.000;0.001;-0.000;-4.500;-45.600;-158.900;946.5;0.00000;0.00000;0.0;0.0
20190311_212913;-0.180;-0.048;9.749;0.001;-0.002;-0.001;-4.500;-45.600;-159.000;946.5;0.00000;0.00000;0.0;0.0
20190311_212913;-0.192;-0.034;9.757;-0.000;-0.002;-0.002;-4.600;-45.600;-159.100;946.5;0.00000;0.00000;0.0;0.0
20190311_212913;-0.201;-0.029;9.757;-0.001;-0.001;-0.000;-4.800;-45.500;-159.200;946.5;0.00000;0.00000;0.0;0.0
20190311_212913;-0.204;-0.034;9.754;-0.002;-0.001;-0.001;-4.900;-45.500;-159.300;946.5;0.00000;0.00000;0.0;0.0
20190311_212913;-0.192;-0.024;9.757;-0.001;0.001;0.000;-4.700;-45.500;-159.300;946.5;0.00000;0.00000;0.0;0.0
20190311_212913;-0.187;-0.031;9.759;-0.001;0.001;-0.001;-4.600;-45.500;-159.100;946.5;0.00000;0.00000;0.0;0.0
20190311_212913;-0.194;-0.029;9.752;0.001;0.001;0.000;-4.500;-45.500;-158.700;946.5;0.00000;0.00000;0.0;0.0
20190311_212913;-0.211;-0.024;9.752;0.002;-0.000;0.000;-4.100;-45.600;-158.300;946.5;0.00000;0.00000;0.0;0.0
20190311_212913;-0.177;-0.045;9.754;-0.002;0.001;0.002;-4.100;-45.600;-158.200;946.5;0.00000;0.00000;0.0;0.0
20190311_212913;-0.187;-0.026;9.752;-0.000;-0.002;0.001;-4.100;-45.600;-158.300;946.5;0.00000;0.00000;0.0;0.0
20190311_212913;-0.184;-0.036;9.752;0.001;-0.002;-0.001;-4.000;-45.600;-158.300;946.5;0.00000;0.00000;0.0;0.0
20190311_212913;-0.192;-0.029;9.752;0.001;-0.001;-0.002;-4.100;-45.600;-158.500;946.5;0.00000;0.00000;0.0;0.0
20190311_212913;-0.194;-0.019;9.757;-0.001;-0.002;0.001;-4.600;-45.500;-158.900;946.5;0.00000;0.00000;0.0;0.0
20190311_212914;-0.204;-0.038;9.747;-0.001;0.001;0.001;-4.700;-45.500;-159.100;946.5;0.00000;0.00000;0.0;0.0
20190311_212914;-0.180;-0.034;9.757;0.001;0.001;-0.001;-4.800;-45.500;-159.100;946.5;0.00000;0.00000;0.0;0.0
20190311_212914;-0.189;-0.026;9.749;-0.001;-0.001;0.000;-4.900;-45.500;-158.800;946.5;0.00000;0.00000;0.0;0.0
20190311_212914;-0.196;-0.036;9.757;0.001;0.001;-0.000;-5.000;-45.500;-158.900;946.5;0.00000;0.00000;0.0;0.0
20190311_212914;-0.189;-0.019;9.757;0.001;0.001;-0.000;-4.800;-45.400;-158.900;946.5;0.00000;0.00000;0.0;0.0
20190311_212914;-0.172;-0.048;9.754;-0.001;0.001;-0.000;-4.700;-45.500;-158.500;946.5;0.00000;0.00000;0.0;0.0
20190311_212914;-0.180;-0.041;9.757;-0.000;0.001;-0.000;-4.800;-45.400;-158.400;946.5;0.00000;0.00000;0.0;0.0
20190311_212914;-0.199;-0.034;9.752;0.001;-0.001;-0.001;-4.800;-45.400;-158.400;946.5;0.00000;0.00000;0.0;0.0
20190311_212914;-0.192;-0.045;9.754;0.001;0.001;0.002;-4.700;-45.400;-158.700;946.5;0.00000;0.00000;0.0;0.0
20190311_212914;-0.192;-0.026;9.757;-0.000;0.002;0.001;-4.700;-45.400;-158.800;946.5;0.00000;0.00000;0.0;0.0
20190311_212914;-0.182;-0.031;9.757;-0.000;-0.001;-0.001;-4.900;-45.400;-159.000;946.5;0.00000;0.00000;0.0;0.0
20190311_212914;-0.192;-0.022;9.757;-0.001;0.001;-0.000;-4.800;-45.400;-159.100;946.5;0.00000;0.00000;0.0;0.0
20190311_212914;-0.187;-0.029;9.757;-0.003;-0.001;-0.001;-4.900;-45.400;-159.100;946.5;0.00000;0.00000;0.0;0.0
20190311_212914;-0.196;-0.024;9.754;-0.001;0.001;-0.000;-5.000;-45.400;-159.100;946.5;0.00000;0.00000;0.0;0.0
20190311_212914;-0.177;-0.043;9.754;0.001;-0.001;0.000;-4.900;-45.500;-158.900;946.5;0.00000;0.00000;0.0;0.0
20190311_212914;-0.189;-0.043;9.754;-0.002;-0.001;-0.001;-4.700;-45.400;-158.800;946.5;0.00000;0.00000;0.0;0.0
20190311_212915;-0.192;-0.029;9.757;-0.002;0.001;0.000;-4.700;-45.400;-158.700;946.6;0.00000;0.00000;0.0;0.0
20190311_212915;-0.220;-0.002;9.754;0.001;0.000;0.002;-4.700;-45.400;-158.600;946.5;0.00000;0.00000;0.0;0.0
20190311_212915;-0.182;-0.024;9.757;-0.001;0.001;-0.001;-4.800;-45.400;-158.700;946.5;0.00000;0.00000;0.0;0.0
20190311_212915;-0.187;-0.036;9.761;0.001;-0.001;-0.002;-4.900;-45.400;-159.000;946.5;0.00000;0.00000;0.0;0.0
20190311_212915;-0.184;-0.022;9.757;-0.004;0.000;0.000;-5.100;-45.500;-159.100;946.5;0.00000;0.00000;0.0;0.0
20190311_212915;-0.189;-0.034;9.757;-0.001;-0.001;0.000;-4.800;-45.600;-158.900;946.5;0.00000;0.00000;0.0;0.0
20190311_212915;-0.194;-0.041;9.757;-0.001;0.000;-0.001;-4.400;-45.600;-158.600;946.5;0.00000;0.00000;0.0;0.0
20190311_212915;-0.189;-0.031;9.757;-0.001;-0.002;-0.000;-4.000;-45.600;-158.100;946.5;0.00000;0.00000;0.0;0.0
20190311_212915;-0.194;-0.029;9.757;-0.000;0.001;-0.001;-3.900;-45.500;-157.900;946.5;0.00000;0.00000;0.0;0.0
20190311_212915;-0.172;-0.034;9.757;-0.001;0.000;-0.002;-3.700;-45.600;-157.800;946.5;0.00000;0.00000;0.0;0.0
20190311_212915;-0.180;-0.019;9.757;-0.001;-0.001;-0.002;-4.000;-45.500;-157.800;946.5;0.00000;0.00000;0.0;0.0
20190311_212915;-0.182;-0.034;9.757;-0.001;0.003;0.000;-4.300;-45.400;-158.200;946.6;0.00000;0.00000;0.0;0.0
20190311_212915;-0.206;-0.022;9.754;0.002;-0.002;0.001;-4.500;-45.400;-158.500;946.6;0.00000;0.00000;0.0;0.0
20190311_212915;-0.204;-0.019;9.757;0.002;0.001;-0.000;-4.500;-45.400;-158.500;946.6;0.00000;0.00000;0.0;0.0
20190311_212915;-0.175;-0.043;9.757;-0.001;0.000;-0.000;-4.700;-45.400;-158.600;946.6;0.00000;0.00000;0.0;0.0
20190311_212915;-0.199;-0.036;9.757;-0.000;0.000;-0.000;-4.700;-45.400;-158.800;946.6;0.00000;0.00000;0.0;0.0
20190311_212915;-0.175;-0.022;9.757;-0.001;0.001;-0.000;-4.800;-45.500;-158.800;946.6;0.00000;0.00000;0.0;0.0
20190311_212916;-0.182;-0.043;9.757;0.001;-0.001;0.003;-4.900;-45.500;-158.900;946.6;0.00000;0.00000;0.0;0.0
20190311_212916;-0.194;-0.036;9.749;-0.000;-0.001;0.000;-4.900;-45.500;-159.100;946.6;0.00000;0.00000;0.0;0.0
20190311_212916;-0.189;-0.026;9.757;-0.000;-0.001;0.001;-4.800;-45.500;-159.100;946.6;0.00000;0.00000;0.0;0.0
20190311_212916;-0.199;-0.024;9.757;-0.001;-0.001;0.000;-4.800;-45.500;-159.000;946.6;0.00000;0.00000;0.0;0.0
20190311_212916;-0.201;-0.034;9.754;-0.001;-0.001;-0.000;-4.700;-45.500;-159.000;946.6;0.00000;0.00000;0.0;0.0
20190311_212916;-0.177;-0.038;9.749;0.001;-0.001;0.002;-4.700;-45.500;-159.000;946.6;0.00000;0.00000;0.0;0.0
20190311_212916;-0.187;-0.026;9.754;0.002;0.001;-0.002;-4.600;-45.600;-158.900;946.6;0.00000;0.00000;0.0;0.0
20190311_212916;-0.201;-0.043;9.757;-0.002;0.001;-0.001;-4.800;-45.500;-158.900;946.6;0.00000;0.00000;0.0;0.0
20190311_212916;-0.199;-0.024;9.757;-0.000;-0.001;0.002;-4.800;-45.500;-158.900;946.6;0.00000;0.00000;0.0;0.0
20190311_212916;-0.172;-0.029;9.757;-0.000;-0.001;0.000;-4.700;-45.500;-158.800;946.6;0.00000;0.00000;0.0;0.0
20190311_212916;-0.211;-0.041;9.747;-0.001;0.001;0.000;-4.600;-45.500;-158.700;946.6;0.00000;0.00000;0.0;0.0
20190311_212916;-0.172;-0.041;9.757;0.001;-0.001;0.000;-4.400;-45.500;-158.700;946.6;0.00000;0.00000;0.0;0.0
20190311_212916;-0.163;-0.062;9.757;-0.003;0.001;0.000;-4.000;-45.600;-158.300;946.6;0.00000;0.00000;0.0;0.0
20190311_212916;-0.182;-0.055;9.759;-0.001;0.001;0.001;-3.700;-45.600;-157.900;946.6;0.00000;0.00000;0.0;0.0
20190311_212916;-0.196;-0.034;9.757;0.002;-0.001;-0.000;-3.700;-45.700;-157.900;946.6;0.00000;0.00000;0.0;0.0
20190311_212916;-0.199;-0.026;9.752;-0.001;0.000;-0.000;-3.700;-45.600;-158.000;946.6;0.00000;0.00000;0.0;0.0
20190311_212916;-0.170;-0.045;9.759;0.001;0.002;-0.001;-3.800;-45.600;-158.200;946.6;0.00000;0.00000;0.0;0.0
20190311_212917;-0.182;-0.038;9.757;0.001;-0.001;0.002;-4.400;-45.500;-158.800;946.6;0.00000;0.00000;0.0;0.0
20190311_212917;-0.201;-0.026;9.757;0.001;-0.001;0.000;-4.400;-45.500;-158.900;946.6;0.00000;0.00000;0.0;0.0
20190311_212917;-0.170;-0.050;9.757;-0.000;0.001;0.001;-4.400;-45.500;-159.100;946.6;0.00000;0.00000;0.0;0.0
20190311_212917;-0.177;-0.045;9.757;-0.000;0.002;-0.001;-4.600;-45.500;-158.900;946.6;0.00000;0.00000;0.0;0.0
20190311_212917;-0.194;-0.022;9.757;-0.000;0.001;-0.002;-4.500;-45.400;-158.800;946.6;0.00000;0.00000;0.0;0.0
20190311_212917;-0.187;0.000;9.757;-0.001;0.001;-0.000;-4.500;-45.500;-158.700;946.6;0.00000;0.00000;0.0;0.0
20190311_212917;-0.172;-0.031;9.757;-0.001;0.001;0.000;-4.500;-45.500;-158.700;946.6;0.00000;0.00000;0.0;0.0
20190311_212917;-0.189;-0.034;9.754;0.001;-0.001;-0.000;-4.600;-45.500;-158.600;946.6;0.00000;0.00000;0.0;0.0
20190311_212917;-0.196;-0.022;9.752;-0.000;-0.001;0.000;-4.600;-45.500;-158.500;946.6;0.00000;0.00000;0.0;0.0
20190311_212917;-0.199;-0.038;9.754;0.002;0.001;-0.000;-4.700;-45.500;-158.700;946.6;0.00000;0.00000;0.0;0.0
20190311_212917;-0.172;-0.036;9.757;0.001;-0.002;0.002;-4.700;-45.400;-158.700;946.6;0.00000;0.00000;0.0;0.0
20190311_212917;-0.187;-0.029;9.757;-0.001;-0.001;-0.001;-4.800;-45.500;-158.800;946.6;0.00000;0.00000;0.0;0.0
20190311_212917;-0.196;-0.029;9.757;0.001;-0.001;-0.000;-4.800;-45.500;-158.900;946.6;0.00000;0.00000;0.0;0.0
20190311_212917;-0.180;-0.036;9.754;-0.000;0.001;-0.002;-4.800;-45.500;-159.000;946.6;0.00000;0.00000;0.0;0.0
20190311_212917;-0.170;-0.053;9.757;-0.000;0.001;-0.000;-4.900;-45.500;-159.000;946.6;0.00000;0.00000;0.0;0.0
20190311_212917;-0.206;-0.041;9.757;0.002;0.000;0.001;-4.600;-45.600;-158.700;946.6;0.00000;0.00000;0.0;0.0
20190311_212918;-0.208;-0.017;9.747;-0.000;0.001;-0.000;-4.600;-45.600;-158.600;946.6;0.00000;0.00000;0.0;0.0
20190311_212918;-0.194;-0.038;9.754;-0.001;0.001;-0.000;-4.700;-45.600;-158.700;946.6;0.00000;0.00000;0.0;0.0
20190311_212918;-0.184;-0.036;9.757;-0.000;0.001;0.000;-4.600;-45.600;-158.700;946.6;0.00000;0.00000;0.0;0.0
20190311_212918;-0.201;-0.024;9.747;-0.001;0.000;0.000;-4.600;-45.500;-158.700;946.6;0.00000;0.00000;0.0;0.0
20190311_212918;-0.184;-0.019;9.757;-0.001;0.001;-0.000;-4.800;-45.500;-159.100;946.6;0.00000;0.00000;0.0;0.0
20190311_212918;-0.182;-0.045;9.757;0.001;0.000;-0.002;-4.700;-45.400;-159.100;946.6;0.00000;0.00000;0.0;0.0
20190311_212918;-0.180;-0.029;9.757;0.002;-0.001;-0.001;-4.600;-45.400;-158.900;946.6;0.00000;0.00000;0.0;0.0
20190311_212918;-0.187;-0.041;9.754;0.001;-0.001;-0.002;-4.600;-45.300;-158.900;946.6;0.00000;0.00000;0.0;0.0
20190311_212918;-0.168;-0.045;9.757;-0.000;0.000;-0.003;-4.600;-45.400;-159.000;946.6;0.00000;0.00000;0.0;0.0
20190311_212918;-0.182;-0.038;9.757;0.001;0.000;-0.002;-4.400;-45.400;-158.900;946.6;0.00000;0.00000;0.0;0.0
20190311_212918;-0.187;-0.041;9.757;-0.000;-0.002;-0.000;-4.500;-45.400;-158.900;946.6;0.00000;0.00000;0.0;0.0
20190311_212918;-0.194;-0.029;9.752;-0.001;0.001;-0.000;-4.500;-45.400;-159.000;946.6;0.00000;0.00000;0.0;0.0
20190311_212918;-0.184;-0.036;9.759;0.001;0.003;-0.001;-4.600;-45.500;-158.900;946.6;0.00000;0.00000;0.0;0.0
20190311_212918;-0.196;-0.017;9.754;-0.003;-0.001;0.001;-4.400;-45.400;-158.800;946.6;0.00000;0.00000;0.0;0.0
20190311_212918;-0.189;-0.045;9.754;0.001;-0.001;0.000;-4.500;-45.300;-158.700;946.6;0.00000;0.00000;0.0;0.0
20190311_212918;-0.208;-0.010;9.757;-0.002;0.001;-0.001;-4.500;-45.300;-158.900;946.6;0.00000;0.00000;0.0;0.0
20190311_212918;-0.175;-0.045;9.757;-0.000;0.001;0.000;-4.500;-45.400;-158.600;946.6;0.00000;0.00000;0.0;0.0
20190311_212919;-0.208;-0.029;9.754;0.001;-0.001;-0.002;-4.500;-45.300;-158.700;946.6;0.00000;0.00000;0.0;0.0
20190311_212919;-0.192;-0.026;9.757;0.001;-0.000;-0.000;-4.600;-45.400;-158.700;946.6;0.00000;0.00000;0.0;0.0
20190311_212919;-0.168;-0.048;9.757;0.001;-0.000;-0.000;-4.700;-45.500;-158.600;946.6;0.00000;0.00000;0.0;0.0
20190311_212919;-0.172;-0.041;9.754;0.002;0.001;0.000;-4.700;-45.600;-158.500;946.6;0.00000;0.00000;0.0;0.0
20190311_212919;-0.182;-0.026;9.757;-0.001;0.001;-0.001;-4.700;-45.600;-158.700;946.6;0.00000;0.00000;0.0;0.0
20190311_212919;-0.201;-0.026;9.754;-0.000;-0.001;-0.001;-4.800;-45.700;-158.700;946.6;0.00000;0.00000;0.0;0.0
20190311_212919;-0.184;-0.034;9.752;0.001;0.001;-0.002;-4.800;-45.700;-158.700;946.6;0.00000;0.00000;0.0;0.0
20190311_212919;-0.187;-0.048;9.757;0.001;-0.001;0.001;-5.000;-45.700;-158.800;946.6;0.00000;0.00000;0.0;0.0
20190311_212919;-0.201;-0.038;9.757;-0.002;-0.001;0.001;-5.100;-45.700;-158.900;946.6;0.00000;0.00000;0.0;0.0
20190311_212919;-0.175;-0.038;9.757;-0.001;-0.000;0.001;-5.000;-45.700;-158.900;946.6;0.00000;0.00000;0.0;0.0
20190311_212919;-0.184;-0.038;9.752;0.001;-0.000;-0.001;-4.900;-45.600;-158.800;946.6;0.00000;0.00000;0.0;0.0
20190311_212919;-0.189;-0.026;9.757;-0.000;0.001;-0.000;-4.900;-45.600;-158.700;946.6;0.00000;0.00000;0.0;0.0
20190311_212919;-0.182;-0.034;9.757;-0.001;0.002;-0.002;-4.600;-45.600;-158.600;946.6;0.00000;0.00000;0.0;0.0
20190311_212919;-0.182;-0.038;9.757;-0.002;0.001;-0.001;-4.200;-45.600;-158.200;946.6;0.00000;0.00000;0.0;0.0
20190311_212919;-0.187;-0.026;9.757;-0.000;0.001;0.002;-3.800;-45.600;-157.800;946.6;0.00000;0.00000;0.0;0.0
20190311_212919;-0.187;-0.036;9.757;0.001;-0.002;0.001;-3.700;-45.600;-157.600;946.6;0.00000;0.00000;0.0;0.0
20190311_212919;-0.196;-0.036;9.754;-0.002;-0.000;0.001;-3.600;-45.600;-157.600;946.6;0.00000;0.00000;0.0;0.0
20190311_212920;-0.194;-0.031;9.754;0.001;-0.001;-0.000;-4.000;-45.400;-157.800;946.6;0.00000;0.00000;0.0;0.0
20190311_212920;-0.206;-0.031;9.754;-0.003;0.001;0.001;-4.300;-45.400;-158.100;946.6;0.00000;0.00000;0.0;0.0
20190311_212920;-0.180;-0.043;9.757;-0.000;0.003;0.001;-4.800;-45.500;-158.500;946.6;0.00000;0.00000;0.0;0.0
20190311_212920;-0.206;-0.029;9.757;-0.001;0.002;0.000;-5.100;-45.500;-158.800;946.6;0.00000;0.00000;0.0;0.0
20190311_212920;-0.206;-0.022;9.757;-0.000;0.001;0.001;-5.100;-45.600;-158.900;946.6;0.00000;0.00000;0.0;0.0
20190311_212920;-0.189;-0.031;9.757;-0.000;0.002;0.001;-5.100;-45.600;-159.100;946.6;0.00000;0.00000;0.0;0.0
20190311_212920;-0.204;-0.019;9.757;-0.000;-0.002;0.000;-5.000;-45.700;-158.900;946.6;0.00000;0.00000;0.0;0.0
20190311_212920;-0.184;-0.048;9.757;0.001;-0.001;0.002;-4.800;-45.600;-158.800;946.6;0.00000;0.00000;0.0;0.0
20190311_212920;-0.196;-0.036;9.757;-0.001;-0.001;-0.001;-4.300;-45.600;-158.300;946.6;0.00000;0.00000;0.0;0.0
20190311_212920;-0.180;-0.026;9.757;-0.001;-0.000;-0.000;-4.100;-45.600;-158.100;946.6;0.00000;0.00000;0.0;0.0
20190311_212920;-0.204;-0.029;9.757;-0.001;-0.002;-0.000;-3.800;-45.600;-157.800;946.6;0.00000;0.00000;0.0;0.0
20190311_212920;-0.201;-0.036;9.757;0.001;0.001;-0.000;-3.800;-45.600;-157.900;946.5;0.00000;0.00000;0.0;0.0
20190311_212920;-0.189;-0.022;9.757;0.002;-0.001;0.000;-3.900;-45.600;-158.100;946.5;0.00000;0.00000;0.0;0.0
20190311_212920;-0.177;-0.043;9.757;-0.001;-0.001;0.001;-4.200;-45.600;-158.600;946.5;0.00000;0.00000;0.0;0.0
20190311_212920;-0.194;-0.022;9.757;0.001;-0.000;-0.002;-4.500;-45.600;-158.800;946.5;0.00000;0.00000;0.0;0.0
20190311_212920;-0.189;-0.041;9.757;-0.003;-0.003;0.001;-4.600;-45.400;-159.100;946.6;0.00000;0.00000;0.0;0.0
20190311_212921;-0.204;-0.029;9.757;-0.001;0.001;0.002;-4.700;-45.400;-159.000;946.6;0.00000;0.00000;0.0;0.0
20190311_212921;-0.189;-0.024;9.749;-0.001;0.001;0.001;-4.800;-45.400;-158.800;946.6;0.00000;0.00000;0.0;0.0
20190311_212921;-0.187;-0.036;9.757;-0.001;-0.001;0.002;-4.700;-45.400;-158.700;946.6;0.00000;0.00000;0.0;0.0
20190311_212921;-0.177;-0.038;9.757;-0.000;-0.000;0.000;-4.700;-45.300;-158.700;946.6;0.00000;0.00000;0.0;0.0
20190311_212921;-0.199;-0.034;9.754;0.002;-0.003;-0.001;-4.800;-45.400;-158.700;946.6;0.00000;0.00000;0.0;0.0
20190311_212921;-0.189;-0.024;9.757;-0.001;0.001;0.001;-4.900;-45.300;-158.700;946.6;0.00000;0.00000;0.0;0.0
20190311_212921;-0.184;-0.031;9.757;0.001;0.001;-0.001;-4.900;-45.300;-158.800;946.6;0.00000;0.00000;0.0;0.0
20190311_212921;-0.189;-0.034;9.757;0.001;-0.001;-0.000;-4.900;-45.300;-158.800;946.6;0.00000;0.00000;0.0;0.0
20190311_212921;-0.172;-0.026;9.757;0.002;-0.001;0.002;-5.000;-45.300;-158.800;946.6;0.00000;0.00000;0.0;0.0
20190311_212921;-0.208;-0.019;9.754;-0.001;0.001;0.001;-4.800;-45.300;-158.700;946.6;0.00000;0.00000;0.0;0.0
20190311_212921;-0.196;-0.019;9.757;-0.001;-0.001;0.000;-4.700;-45.400;-158.700;946.6;0.00000;0.00000;0.0;0.0
20190311_212921;-0.192;-0.041;9.754;-0.000;0.001;0.002;-4.800;-45.500;-158.800;946.6;0.00000;0.00000;0.0;0.0
20190311_212921;-0.199;-0.029;9.754;0.001;-0.001;0.001;-4.800;-45.500;-158.800;946.6;0.00000;0.00000;0.0;0.0
20190311_212921;-0.187;-0.014;9.757;-0.000;-0.000;-0.001;-4.900;-45.500;-158.900;946.6;0.00000;0.00000;0.0;0.0
20190311_212921;-0.187;-0.019;9.757;0.001;0.001;0.000;-5.000;-45.500;-158.900;946.6;0.00000;0.00000;0.0;0.0
20190311_212921;-0.196;-0.045;9.757;-0.001;-0.000;0.001;-4.900;-45.400;-158.800;946.6;0.00000;0.00000;0.0;0.0
20190311_212921;-0.194;-0.031;9.757;0.001;-0.002;0.000;-4.800;-45.400;-158.800;946.6;0.00000;0.00000;0.0;0.0
20190311_212922;-0.189;-0.041;9.754;0.001;-0.001;0.001;-4.800;-45.400;-158.700;946.6;0.00000;0.00000;0.0;0.0
20190311_212922;-0.165;-0.036;9.761;0.001;-0.001;0.002;-4.800;-45.400;-158.800;946.6;0.00000;0.00000;0.0;0.0
20190311_212922;-0.187;-0.031;9.754;-0.000;0.001;-0.002;-4.500;-45.500;-158.700;946.6;0.00000;0.00000;0.0;0.0
20190311_212922;-0.194;-0.026;9.757;-0.002;0.001;-0.001;-4.600;-45.500;-158.800;946.6;0.00000;0.00000;0.0;0.0
20190311_212922;-0.187;-0.029;9.757;0.001;0.001;-0.000;-4.700;-45.600;-158.800;946.6;0.00000;0.00000;0.0;0.0
20190311_212922;-0.204;-0.034;9.757;0.001;-0.001;0.001;-4.700;-45.600;-159.000;946.6;0.00000;0.00000;0.0;0.0
20190311_212922;-0.206;-0.029;9.754;-0.000;-0.000;-0.001;-4.700;-45.600;-158.900;946.6;0.00000;0.00000;0.0;0.0
20190311_212922;-0.170;-0.024;9.759;0.001;-0.001;0.002;-4.800;-45.500;-158.900;946.6;0.00000;0.00000;0.0;0.0
20190311_212922;-0.192;-0.041;9.752;0.001;0.002;0.002;-4.800;-45.500;-159.000;946.6;0.00000;0.00000;0.0;0.0
20190311_212922;-0.177;-0.038;9.757;-0.000;-0.000;-0.000;-4.700;-45.500;-159.000;946.6;0.00000;0.00000;0.0;0.0
20190311_212922;-0.180;-0.034;9.757;-0.002;-0.000;0.000;-4.700;-45.400;-158.800;946.6;0.00000;0.00000;0.0;0.0
20190311_212922;-0.187;-0.036;9.757;0.001;-0.001;-0.001;-4.700;-45.400;-158.900;946.6;0.00000;0.00000;0.0;0.0
20190311_212922;-0.189;-0.038;9.757;0.002;-0.000;0.002;-4.600;-45.400;-159.000;946.6;0.00000;0.00000;0.0;0.0
20190311_212922;-0.199;-0.026;9.754;-0.001;0.002;0.000;-4.400;-45.400;-159.000;946.6;0.00000;0.00000;0.0;0.0
20190311_212922;-0.187;-0.043;9.757;-0.002;0.001;-0.002;-4.400;-45.400;-159.000;946.5;0.00000;0.00000;0.0;0.0
20190311_212922;-0.194;-0.026;9.757;0.001;0.001;-0.000;-4.100;-45.400;-158.800;946.5;0.00000;0.00000;0.0;0.0
20190311_212923;-0.182;-0.038;9.757;-0.001;0.001;-0.000;-3.800;-45.500;-158.300;946.5;0.00000;0.00000;0.0;0.0
20190311_212923;-0.194;-0.036;9.757;-0.003;-0.001;0.002;-3.800;-45.400;-158.200;946.5;0.00000;0.00000;0.0;0.0
20190311_212923;-0.189;-0.017;9.754;0.001;-0.000;-0.001;-3.900;-45.400;-158.300;946.5;0.00000;0.00000;0.0;0.0
20190311_212923;-0.196;-0.022;9.754;-0.000;-0.000;0.001;-4.000;-45.400;-158.200;946.5;0.00000;0.00000;0.0;0.0
20190311_212923;-0.196;-0.029;9.757;0.001;-0.001;-0.000;-4.300;-45.400;-158.600;946.5;0.00000;0.00000;0.0;0.0
20190311_212923;-0.211;-0.022;9.754;0.003;-0.001;0.001;-4.600;-45.400;-158.900;946.5;0.00000;0.00000;0.0;0.0
20190311_212923;-0.201;-0.026;9.745;0.001;-0.000;-0.001;-4.700;-45.400;-158.800;946.5;0.00000;0.00000;0.0;0.0
20190311_212923;-0.194;-0.022;9.754;-0.000;0.001;0.000;-4.700;-45.300;-158.600;946.5;0.00000;0.00000;0.0;0.0
20190311_212923;-0.204;-0.022;9.754;-0.001;0.001;-0.000;-4.600;-45.300;-158.500;946.5;0.00000;0.00000;0.0;0.0
20190311_212923;-0.187;-0.043;9.757;-0.001;-0.001;-0.000;-4.700;-45.400;-158.200;946.5;0.00000;0.00000;0.0;0.0
20190311_212923;-0.199;-0.029;9.754;-0.001;0.002;-0.001;-4.700;-45.400;-158.200;946.5;0.00000;0.00000;0.0;0.0
20190311_212923;-0.196;-0.017;9.757;-0.003;-0.000;0.001;-4.800;-45.400;-158.400;946.5;0.00000;0.00000;0.0;0.0
20190311_212923;-0.196;-0.034;9.757;-0.001;-0.002;0.000;-4.800;-45.500;-158.600;946.5;0.00000;0.00000;0.0;0.0
20190311_212923;-0.180;-0.048;9.757;-0.000;-0.001;-0.000;-4.800;-45.400;-158.600;946.5;0.00000;0.00000;0.0;0.0
20190311_212923;-0.204;-0.034;9.754;-0.000;-0.001;0.000;-4.800;-45.400;-158.800;946.5;0.00000;0.00000;0.0;0.0
20190311_212923;-0.194;-0.029;9.757;-0.001;-0.002;-0.001;-4.600;-45.500;-158.800;946.5;0.00000;0.00000;0.0;0.0
20190311_212923;-0.196;-0.034;9.752;-0.001;0.001;-0.000;-4.600;-45.600;-158.800;946.5;0.00000;0.00000;0.0;0.0
20190311_212924;-0.192;-0.019;9.757;-0.000;-0.002;-0.001;-4.800;-45.700;-159.100;946.5;0.00000;0.00000;0.0;0.0
20190311_212924;-0.189;-0.036;9.754;0.001;-0.001;-0.000;-4.900;-45.700;-159.100;946.5;0.00000;0.00000;0.0;0.0
20190311_212924;-0.199;-0.029;9.757;-0.000;-0.002;-0.003;-4.900;-45.700;-159.100;946.5;0.00000;0.00000;0.0;0.0
20190311_212924;-0.180;-0.017;9.757;-0.001;-0.000;0.002;-5.000;-45.600;-159.200;946.5;0.00000;0.00000;0.0;0.0
20190311_212924;-0.180;-0.038;9.757;-0.000;-0.000;0.002;-5.000;-45.500;-159.200;946.6;0.00000;0.00000;0.0;0.0
20190311_212924;-0.189;-0.026;9.757;-0.000;-0.000;-0.001;-4.800;-45.500;-158.800;946.6;0.00000;0.00000;0.0;0.0
20190311_212924;-0.192;-0.043;9.757;-0.002;0.001;-0.000;-4.800;-45.500;-158.900;946.6;0.00000;0.00000;0.0;0.0
20190311_212924;-0.182;-0.029;9.757;0.001;-0.001;-0.001;-4.800;-45.500;-159.200;946.6;0.00000;0.00000;0.0;0.0
20190311_212924;-0.177;-0.034;9.757;-0.001;-0.001;-0.001;-4.800;-45.600;-159.200;946.6;0.00000;0.00000;0.0;0.0
20190311_212924;-0.180;-0.041;9.757;0.002;-0.003;-0.000;-4.800;-45.700;-159.100;946.6;0.00000;0.00000;0.0;0.0
20190311_212924;-0.194;-0.019;9.757;0.001;0.001;-0.001;-4.800;-45.600;-159.300;946.6;0.00000;0.00000;0.0;0.0
20190311_212924;-0.206;-0.029;9.757;-0.000;-0.003;0.003;-4.700;-45.600;-159.200;946.5;0.00000;0.00000;0.0;0.0
20190311_212924;-0.204;-0.022;9.754;0.002;0.001;-0.000;-4.700;-45.600;-159.000;946.5;0.00000;0.00000;0.0;0.0
20190311_212924;-0.201;-0.024;9.757;-0.001;0.001;0.000;-4.700;-45.500;-158.900;946.5;0.00000;0.00000;0.0;0.0
20190311_212924;-0.204;-0.024;9.752;-0.003;0.001;-0.001;-4.600;-45.300;-158.800;946.5;0.00000;0.00000;0.0;0.0
20190311_212924;-0.213;-0.022;9.752;-0.001;-0.001;0.000;-4.600;-45.300;-158.700;946.5;0.00000;0.00000;0.0;0.0
20190311_212925;-0.194;-0.031;9.754;-0.001;-0.000;-0.000;-4.700;-45.300;-158.800;946.5;0.00000;0.00000;0.0;0.0
20190311_212925;-0.189;-0.034;9.757;0.002;-0.000;-0.000;-4.700;-45.400;-158.800;946.5;0.00000;0.00000;0.0;0.0
20190311_212925;-0.184;-0.034;9.757;0.001;-0.001;-0.000;-4.600;-45.400;-159.000;946.5;0.00000;0.00000;0.0;0.0
20190311_212925;-0.187;-0.022;9.757;-0.002;-0.001;0.000;-4.600;-45.500;-159.100;946.5;0.00000;0.00000;0.0;0.0
20190311_212925;-0.196;-0.031;9.757;-0.002;0.001;-0.001;-4.700;-45.500;-159.200;946.5;0.00000;0.00000;0.0;0.0
20190311_212925;-0.182;-0.022;9.757;0.001;0.002;-0.002;-4.700;-45.600;-159.000;946.5;0.00000;0.00000;0.0;0.0
20190311_212925;-0.213;-0.031;9.757;0.001;0.001;0.001;-4.800;-45.500;-159.000;946.5;0.00000;0.00000;0.0;0.0
20190311_212925;-0.204;-0.043;9.752;-0.000;0.001;-0.001;-4.900;-45.500;-158.800;946.5;0.00000;0.00000;0.0;0.0
20190311_212925;-0.182;-0.031;9.757;-0.002;0.001;0.000;-5.000;-45.500;-158.900;946.5;0.00000;0.00000;0.0;0.0
20190311_212925;-0.172;-0.041;9.761;-0.001;0.001;-0.000;-5.000;-45.500;-158.800;946.5;0.00000;0.00000;0.0;0.0
20190311_212925;-0.182;-0.038;9.757;0.001;-0.001;0.002;-5.000;-45.500;-158.900;946.5;0.00000;0.00000;0.0;0.0
20190311_212925;-0.182;-0.043;9.757;0.001;-0.001;0.000;-4.900;-45.400;-158.800;946.5;0.00000;0.00000;0.0;0.0
20190311_212925;-0.194;-0.029;9.757;0.002;0.001;0.000;-4.900;-45.500;-159.000;946.5;0.00000;0.00000;0.0;0.0
20190311_212925;-0.182;-0.029;9.757;0.001;-0.000;0.000;-4.900;-45.500;-158.800;946.5;0.00000;0.00000;0.0;0.0
20190311_212925;-0.194;-0.029;9.757;-0.001;-0.001;0.001;-4.900;-45.500;-158.900;946.5;0.00000;0.00000;0.0;0.0
20190311_212925;-0.168;-0.036;9.757;0.001;-0.001;-0.000;-4.800;-45.500;-158.800;946.5;0.00000;0.00000;0.0;0.0
20190311_212925;-0.196;-0.024;9.757;0.002;-0.002;-0.001;-4.900;-45.600;-158.800;946.5;0.00000;0.00000;0.0;0.0
20190311_212926;-0.211;-0.048;9.757;-0.001;0.001;-0.000;-4.600;-45.500;-158.100;946.5;0.00000;0.00000;0.0;0.0
20190311_212926;-0.206;-0.034;9.752;-0.002;0.002;-0.001;-4.300;-45.600;-157.600;946.6;0.00000;0.00000;0.0;0.0
20190311_212926;-0.177;-0.041;9.757;0.001;-0.002;0.000;-4.000;-45.600;-157.100;946.6;0.00000;0.00000;0.0;0.0
20190311_212926;-0.184;-0.031;9.757;0.003;-0.000;-0.000;-4.100;-45.600;-157.400;946.6;0.00000;0.00000;0.0;0.0
20190311_212926;-0.175;-0.031;9.757;0.001;0.001;-0.000;-4.100;-45.600;-157.300;946.6;0.00000;0.00000;0.0;0.0
20190311_212926;-0.189;-0.038;9.754;-0.001;-0.000;0.000;-4.300;-45.700;-157.800;946.6;0.00000;0.00000;0.0;0.0
20190311_212926;-0.192;-0.029;9.757;0.001;-0.001;0.001;-4.700;-45.700;-158.300;946.6;0.00000;0.00000;0.0;0.0
20190311_212926;-0.194;-0.041;9.757;0.001;-0.000;-0.000;-5.000;-45.600;-158.600;946.6;0.00000;0.00000;0.0;0.0
20190311_212926;-0.194;-0.024;9.752;0.001;-0.000;-0.001;-5.000;-45.600;-158.700;946.6;0.00000;0.00000;0.0;0.0
20190311_212926;-0.182;-0.036;9.757;0.001;-0.000;0.000;-5.000;-45.700;-158.600;946.6;0.00000;0.00000;0.0;0.0
20190311_212926;-0.196;-0.041;9.757;-0.001;-0.001;-0.000;-5.100;-45.700;-158.500;946.6;0.00000;0.00000;0.0;0.0
20190311_212926;-0.189;-0.036;9.754;0.001;-0.001;0.000;-5.100;-45.700;-158.700;946.6;0.00000;0.00000;0.0;0.0
20190311_212926;-0.189;-0.029;9.757;0.002;0.001;-0.000;-5.100;-45.600;-158.900;946.6;0.00000;0.00000;0.0;0.0
20190311_212926;-0.194;-0.029;9.754;0.001;-0.000;0.001;-4.900;-45.500;-158.600;946.6;0.00000;0.00000;0.0;0.0
20190311_212926;-0.201;-0.024;9.757;-0.001;0.001;0.002;-4.900;-45.500;-158.600;946.6;0.00000;0.00000;0.0;0.0
20190311_212926;-0.177;-0.031;9.752;-0.000;0.001;-0.001;-4.900;-45.500;-158.900;946.6;0.00000;0.00000;0.0;0.0
20190311_212926;-0.194;-0.031;9.757;-0.000;-0.002;-0.000;-4.800;-45.600;-158.900;946.6;0.00000;0.00000;0.0;0.0
20190311_212927;-0.170;-0.036;9.757;-0.001;-0.001;-0.002;-4.800;-45.600;-158.800;946.6;0.00000;0.00000;0.0;0.0
20190311_212927;-0.192;-0.041;9.757;-0.001;-0.001;-0.000;-5.000;-45.700;-159.200;946.6;0.00000;0.00000;0.0;0.0
20190311_212927;-0.170;-0.041;9.759;-0.001;-0.000;-0.001;-5.100;-45.600;-159.400;946.6;0.00000;0.00000;0.0;0.0
20190311_212927;-0.204;-0.017;9.742;0.001;-0.001;0.000;-5.000;-45.600;-159.300;946.6;0.00000;0.00000;0.0;0.0
20190311_212927;-0.194;-0.022;9.757;-0.001;-0.001;0.000;-5.100;-45.500;-159.300;946.6;0.00000;0.00000;0.0;0.0
20190311_212927;-0.180;-0.041;9.757;-0.001;-0.000;-0.000;-5.200;-45.500;-159.400;946.6;0.00000;0.00000;0.0;0.0
20190311_212927;-0.184;-0.043;9.757;0.002;0.001;0.000;-5.100;-45.500;-159.200;946.6;0.00000;0.00000;0.0;0.0
20190311_212927;-0.192;-0.038;9.757;0.000;-0.000;-0.001;-5.000;-45.400;-159.100;946.6;0.00000;0.00000;0.0;0.0
20190311_212927;-0.199;-0.031;9.745;0.002;-0.000;0.000;-5.100;-45.400;-159.200;946.6;0.00000;0.00000;0.0;0.0
20190311_212927;-0.189;-0.038;9.754;-0.001;-0.001;-0.001;-5.000;-45.500;-159.300;946.6;0.00000;0.00000;0.0;0.0
20190311_212927;-0.201;-0.029;9.757;-0.001;-0.001;0.000;-4.900;-45.400;-159.100;946.6;0.00000;0.00000;0.0;0.0
20190311_212927;-0.175;-0.043;9.757;-0.001;0.001;-0.001;-5.000;-45.500;-159.200;946.6;0.00000;0.00000;0.0;0.0
20190311_212927;-0.201;-0.036;9.757;0.000;0.001;0.002;-5.000;-45.600;-159.100;946.6;0.00000;0.00000;0.0;0.0
20190311_212927;-0.182;-0.031;9.757;0.000;-0.001;0.002;-4.900;-45.600;-159.000;946.6;0.00000;0.00000;0.0;0.0
20190311_212927;-0.165;-0.055;9.757;0.002;-0.001;-0.000;-5.000;-45.600;-158.900;946.6;0.00000;0.00000;0.0;0.0
20190311_212927;-0.187;-0.026;9.757;0.001;-0.000;-0.001;-5.000;-45.600;-159.000;946.6;0.00000;0.00000;0.0;0.0
20190311_212928;-0.172;-0.048;9.754;0.001;-0.001;0.001;-5.000;-45.600;-159.100;946.6;0.00000;0.00000;0.0;0.0
20190311_212928;-0.196;-0.038;9.757;0.001;-0.001;0.001;-4.900;-45.500;-159.400;946.6;0.00000;0.00000;0.0;0.0
20190311_212928;-0.189;-0.029;9.757;0.001;0.001;-0.000;-4.900;-45.600;-159.400;946.6;0.00000;0.00000;0.0;0.0
20190311_212928;-0.184;-0.026;9.752;0.002;-0.001;-0.001;-4.900;-45.600;-159.300;946.6;0.00000;0.00000;0.0;0.0
20190311_212928;-0.180;-0.029;9.757;0.002;0.001;0.000;-4.800;-45.600;-159.300;946.6;0.00000;0.00000;0.0;0.0
20190311_212928;-0.184;-0.038;9.754;-0.001;0.001;-0.000;-4.800;-45.600;-159.200;946.6;0.00000;0.00000;0.0;0.0
20190311_212928;-0.192;-0.038;9.757;0.001;-0.001;0.002;-5.000;-45.600;-159.100;946.6;0.00000;0.00000;0.0;0.0
20190311_212928;-0.196;-0.045;9.757;0.001;0.001;-0.001;-5.000;-45.500;-159.300;946.6;0.00000;0.00000;0.0;0.0
20190311_212928;-0.187;-0.041;9.757;0.001;0.001;-0.001;-5.000;-45.600;-159.200;946.6;0.00000;0.00000;0.0;0.0
20190311_212928;-0.201;-0.045;9.754;0.002;-0.001;0.000;-5.000;-45.600;-159.300;946.6;0.00000;0.00000;0.0;0.0
20190311_212928;-0.175;-0.031;9.757;0.001;-0.001;0.000;-5.000;-45.600;-159.200;946.6;0.00000;0.00000;0.0;0.0
20190311_212928;-0.196;-0.034;9.754;0.000;0.001;0.000;-5.000;-45.700;-159.000;946.6;0.00000;0.00000;0.0;0.0
20190311_212928;-0.201;-0.034;9.757;-0.001;0.001;-0.001;-5.000;-45.700;-159.000;946.6;0.00000;0.00000;0.0;0.0
20190311_212928;-0.172;-0.045;9.757;-0.001;0.001;0.001;-5.100;-45.700;-158.900;946.6;0.00000;0.00000;0.0;0.0
20190311_212928;-0.180;-0.038;9.757;-0.001;-0.001;0.000;-4.900;-45.700;-158.800;946.6;0.00000;0.00000;0.0;0.0
20190311_212928;-0.213;-0.034;9.757;0.001;-0.002;0.000;-4.900;-45.700;-159.000;946.6;0.00000;0.00000;0.0;0.0
20190311_212928;-0.187;-0.038;9.757;0.001;-0.001;0.000;-4.900;-45.700;-159.100;946.6;0.00000;0.00000;0.0;0.0
20190311_212929;-0.192;-0.045;9.757;0.001;0.001;-0.000;-5.000;-45.700;-159.300;946.6;0.00000;0.00000;0.0;0.0
20190311_212929;-0.187;-0.043;9.757;0.002;-0.002;-0.001;-5.000;-45.700;-159.100;946.6;0.00000;0.00000;0.0;0.0
20190311_212929;-0.177;-0.043;9.757;0.002;-0.001;0.000;-5.000;-45.800;-159.100;946.6;0.00000;0.00000;0.0;0.0
20190311_212929;-0.187;-0.034;9.757;0.001;0.001;0.001;-4.600;-45.800;-158.500;946.6;0.00000;0.00000;0.0;0.0
20190311_212929;-0.187;-0.031;9.757;0.000;0.001;0.001;-4.300;-45.900;-158.200;946.6;0.00000;0.00000;0.0;0.0
20190311_212929;-0.199;-0.036;9.757;0.000;0.004;-0.001;-4.300;-46.000;-158.100;946.6;0.00000;0.00000;0.0;0.0
20190311_212929;-0.175;-0.038;9.757;0.000;0.001;-0.001;-4.200;-45.900;-158.400;946.5;0.00000;0.00000;0.0;0.0
20190311_212929;-0.196;-0.031;9.757;-0.001;-0.000;0.000;-4.300;-45.800;-158.500;946.5;0.00000;0.00000;0.0;0.0
20190311_212929;-0.180;-0.034;9.757;0.000;0.001;0.001;-4.700;-45.700;-159.000;946.5;0.00000;0.00000;0.0;0.0
20190311_212929;-0.201;-0.026;9.757;0.001;0.001;0.000;-5.000;-45.700;-159.200;946.6;0.00000;0.00000;0.0;0.0
20190311_212929;-0.182;-0.055;9.757;0.001;0.002;0.000;-5.000;-45.700;-159.200;946.6;0.00000;0.00000;0.0;0.0
20190311_212929;-0.199;-0.029;9.754;-0.002;0.001;-0.000;-5.000;-45.600;-159.100;946.5;0.00000;0.00000;0.0;0.0
20190311_212929;-0.182;-0.019;9.759;-0.001;-0.001;-0.001;-5.000;-45.600;-159.200;946.5;0.00000;0.00000;0.0;0.0
20190311_212929;-0.208;-0.022;9.754;0.001;-0.001;0.001;-4.900;-45.600;-159.100;946.5;0.00000;0.00000;0.0;0.0
20190311_212929;-0.196;-0.034;9.747;0.000;0.001;-0.001;-4.800;-45.500;-159.100;946.5;0.00000;0.00000;0.0;0.0
20190311_212929;-0.192;-0.029;9.752;0.000;-0.000;0.001;-4.800;-45.500;-159.100;946.5;0.00000;0.00000;0.0;0.0
20190311_212930;-0.192;-0.041;9.754;0.002;-0.000;0.000;-4.700;-45.600;-159.000;946.5;0.00000;0.00000;0.0;0.0
20190311_212930;-0.189;-0.029;9.757;0.001;-0.001;-0.000;-4.700;-45.600;-158.900;946.5;0.00000;0.00000;0.0;0.0
20190311_212930;-0.184;-0.041;9.754;0.000;-0.000;-0.001;-4.800;-45.600;-159.000;946.5;0.00000;0.00000;0.0;0.0
20190311_212930;-0.184;-0.043;9.749;0.001;-0.000;0.002;-4.700;-45.500;-159.100;946.5;0.00000;0.00000;0.0;0.0
20190311_212930;-0.184;-0.045;9.757;0.000;-0.000;-0.000;-4.800;-45.600;-159.200;946.5;0.00000;0.00000;0.0;0.0
20190311_212930;-0.201;-0.031;9.754;0.001;0.001;0.001;-5.000;-45.500;-159.500;946.6;0.00000;0.00000;0.0;0.0
20190311_212930;-0.177;-0.038;9.754;0.000;0.001;0.002;-5.000;-45.600;-159.600;946.6;0.00000;0.00000;0.0;0.0
20190311_212930;-0.187;-0.038;9.757;0.000;-0.001;0.002;-4.900;-45.600;-159.400;946.6;0.00000;0.00000;0.0;0.0
20190311_212930;-0.201;-0.038;9.757;-0.001;-0.001;-0.000;-5.100;-45.500;-159.500;946.6;0.00000;0.00000;0.0;0.0
20190311_212930;-0.199;-0.041;9.757;0.001;-0.001;-0.000;-4.900;-45.400;-159.400;946.6;0.00000;0.00000;0.0;0.0
20190311_212930;-0.196;-0.043;9.754;0.001;-0.001;0.002;-4.600;-45.500;-159.100;946.6;0.00000;0.00000;0.0;0.0
20190311_212930;-0.192;-0.026;9.757;0.000;0.001;-0.001;-4.800;-45.600;-158.900;946.6;0.00000;0.00000;0.0;0.0
20190311_212930;-0.213;-0.029;9.754;0.001;-0.001;0.001;-4.700;-45.600;-158.800;946.6;0.00000;0.00000;0.0;0.0
20190311_212930;-0.187;-0.014;9.757;-0.001;-0.001;-0.001;-4.400;-45.600;-158.400;946.6;0.00000;0.00000;0.0;0.0
20190311_212930;-0.196;-0.038;9.752;-0.001;-0.000;0.001;-4.200;-45.700;-157.900;946.6;0.00000;0.00000;0.0;0.0
20190311_212930;-0.194;-0.060;9.757;0.000;-0.000;0.000;-4.100;-45.600;-157.700;946.6;0.00000;0.00000;0.0;0.0
20190311_212930;-0.172;-0.043;9.757;0.001;0.002;0.001;-4.100;-45.500;-157.700;946.6;0.00000;0.00000;0.0;0.0
20190311_212931;-0.213;-0.026;9.747;0.000;-0.003;0.001;-4.200;-45.500;-157.800;946.6;0.00000;0.00000;0.0;0.0
20190311_212931;-0.168;-0.034;9.757;-0.001;0.001;0.001;-4.500;-45.400;-158.200;946.6;0.00000;0.00000;0.0;0.0
20190311_212931;-0.194;-0.031;9.754;-0.001;-0.001;0.000;-4.800;-45.400;-158.800;946.6;0.00000;0.00000;0.0;0.0
20190311_212931;-0.189;-0.031;9.757;0.002;0.002;0.000;-4.800;-45.500;-159.100;946.6;0.00000;0.00000;0.0;0.0
20190311_212931;-0.177;-0.022;9.757;-0.001;-0.000;0.000;-4.900;-45.500;-159.200;946.6;0.00000;0.00000;0.0;0.0
20190311_212931;-0.194;-0.041;9.757;-0.000;0.001;-0.002;-4.900;-45.400;-159.300;946.6;0.00000;0.00000;0.0;0.0
20190311_212931;-0.182;-0.048;9.757;0.001;-0.000;-0.001;-5.000;-45.500;-159.200;946.6;0.00000;0.00000;0.0;0.0
20190311_212931;-0.189;-0.048;9.757;-0.001;-0.001;-0.000;-4.900;-45.500;-159.200;946.6;0.00000;0.00000;0.0;0.0
20190311_212931;-0.189;-0.019;9.757;0.002;-0.001;-0.001;-5.100;-45.400;-159.100;946.6;0.00000;0.00000;0.0;0.0
20190311_212931;-0.177;-0.024;9.754;0.001;0.002;-0.000;-4.900;-45.400;-158.900;946.6;0.00000;0.00000;0.0;0.0
20190311_212931;-0.187;-0.036;9.752;0.002;0.000;0.001;-4.800;-45.500;-158.900;946.6;0.00000;0.00000;0.0;0.0
20190311_212931;-0.177;-0.048;9.754;-0.001;-0.001;-0.000;-4.700;-45.500;-158.800;946.6;0.00000;0.00000;0.0;0.0
20190311_212931;-0.189;-0.031;9.757;0.002;-0.002;0.000;-4.800;-45.500;-158.800;946.6;0.00000;0.00000;0.0;0.0
20190311_212931;-0.189;-0.024;9.754;-0.000;0.000;-0.001;-4.600;-45.600;-158.900;946.6;0.00000;0.00000;0.0;0.0
20190311_212931;-0.206;-0.036;9.754;-0.000;-0.001;-0.001;-4.500;-45.600;-158.900;946.6;0.00000;0.00000;0.0;0.0
20190311_212931;-0.180;-0.036;9.757;-0.000;-0.000;-0.002;-4.600;-45.600;-158.900;946.6;0.00000;0.00000;0.0;0.0
20190311_212931;-0.180;-0.043;9.759;0.001;0.000;-0.000;-4.700;-45.600;-158.900;946.6;0.00000;0.00000;0.0;0.0
20190311_212932;-0.180;-0.031;9.757;0.001;0.000;-0.001;-4.600;-45.500;-158.800;946.6;0.00000;0.00000;0.0;0.0
20190311_212932;-0.211;-0.031;9.757;0.001;-0.000;-0.003;-4.800;-45.400;-158.800;946.6;0.00000;0.00000;0.0;0.0
20190311_212932;-0.180;-0.043;9.757;-0.000;-0.000;-0.001;-4.900;-45.400;-158.900;946.5;0.00000;0.00000;0.0;0.0
20190311_212932;-0.201;-0.024;9.757;-0.000;-0.001;0.000;-4.900;-45.300;-158.800;946.5;0.00000;0.00000;0.0;0.0
20190311_212932;-0.172;-0.043;9.757;-0.000;0.000;0.000;-4.500;-45.400;-158.500;946.5;0.00000;0.00000;0.0;0.0
20190311_212932;-0.199;-0.034;9.735;-0.000;-0.001;-0.001;-4.200;-45.400;-158.100;946.5;0.00000;0.00000;0.0;0.0
20190311_212932;-0.180;-0.031;9.757;0.001;-0.001;-0.000;-3.800;-45.500;-157.900;946.5;0.00000;0.00000;0.0;0.0
20190311_212932;-0.184;-0.043;9.752;0.001;-0.002;0.001;-3.700;-45.500;-157.700;946.5;0.00000;0.00000;0.0;0.0
20190311_212932;-0.211;-0.024;9.757;-0.002;-0.000;0.001;-3.800;-45.500;-158.100;946.5;0.00000;0.00000;0.0;0.0
20190311_212932;-0.204;-0.026;9.757;0.001;-0.002;0.000;-4.000;-45.400;-158.400;946.5;0.00000;0.00000;0.0;0.0
20190311_212932;-0.175;-0.041;9.759;-0.000;-0.001;0.001;-4.500;-45.400;-159.000;946.5;0.00000;0.00000;0.0;0.0
20190311_212932;-0.194;-0.031;9.757;0.002;0.001;0.000;-4.700;-45.400;-159.000;946.5;0.00000;0.00000;0.0;0.0
20190311_212932;-0.192;-0.026;9.757;0.001;0.000;0.000;-4.800;-45.400;-159.100;946.5;0.00000;0.00000;0.0;0.0
20190311_212932;-0.192;-0.014;9.754;0.001;0.001;-0.000;-4.700;-45.400;-159.000;946.5;0.00000;0.00000;0.0;0.0
20190311_212932;-0.208;-0.022;9.752;-0.000;-0.002;0.000;-4.700;-45.500;-159.000;946.5;0.00000;0.00000;0.0;0.0
20190311_212932;-0.204;-0.024;9.757;-0.001;0.002;-0.001;-4.600;-45.500;-158.900;946.5;0.00000;0.00000;0.0;0.0
20190311_212933;-0.182;-0.036;9.757;-0.000;0.000;0.002;-4.500;-45.500;-159.000;946.5;0.00000;0.00000;0.0;0.0
20190311_212933;-0.194;-0.026;9.757;-0.001;-0.001;-0.000;-4.500;-45.500;-158.800;946.5;0.00000;0.00000;0.0;0.0
20190311_212933;-0.192;-0.026;9.757;-0.001;0.000;0.000;-4.500;-45.500;-158.800;946.5;0.00000;0.00000;0.0;0.0
20190311_212933;-0.182;-0.036;9.757;-0.000;0.002;-0.001;-4.700;-45.500;-158.700;946.5;0.00000;0.00000;0.0;0.0
20190311_212933;-0.192;-0.036;9.757;0.001;-0.001;0.000;-4.800;-45.400;-158.900;946.5;0.00000;0.00000;0.0;0.0
20190311_212933;-0.160;-0.048;9.757;-0.000;0.001;0.001;-4.800;-45.500;-158.900;946.5;0.00000;0.00000;0.0;0.0
20190311_212933;-0.201;-0.022;9.747;-0.000;-0.000;-0.000;-4.900;-45.400;-159.000;946.5;0.00000;0.00000;0.0;0.0
20190311_212933;-0.187;-0.029;9.757;-0.000;-0.001;-0.001;-4.900;-45.400;-159.200;946.5;0.00000;0.00000;0.0;0.0
20190311_212933;-0.192;-0.034;9.757;-0.002;-0.001;0.001;-4.900;-45.300;-159.200;946.5;0.00000;0.00000;0.0;0.0
20190311_212933;-0.194;-0.031;9.757;-0.000;0.000;0.001;-4.900;-45.400;-159.200;946.5;0.00000;0.00000;0.0;0.0
20190311_212933;-0.196;-0.041;9.757;-0.000;0.000;-0.001;-4.600;-45.500;-159.100;946.5;0.00000;0.00000;0.0;0.0
20190311_212933;-0.189;-0.024;9.757;0.001;0.000;-0.001;-4.500;-45.500;-159.000;946.5;0.00000;0.00000;0.0;0.0
20190311_212933;-0.189;-0.024;9.757;0.001;0.001;-0.001;-4.500;-45.500;-159.000;946.5;0.00000;0.00000;0.0;0.0
20190311_212933;-0.172;-0.038;9.757;0.001;0.000;-0.000;-4.500;-45.500;-159.100;946.5;0.00000;0.00000;0.0;0.0
20190311_212933;-0.189;-0.034;9.757;0.002;-0.003;-0.000;-4.400;-45.500;-158.900;946.5;0.00000;0.00000;0.0;0.0
20190311_212933;-0.194;-0.041;9.757;-0.001;-0.000;0.001;-4.500;-45.500;-159.000;946.5;0.00000;0.00000;0.0;0.0
20190311_212933;-0.187;-0.026;9.754;-0.002;-0.001;-0.001;-4.700;-45.400;-159.000;946.5;0.00000;0.00000;0.0;0.0
20190311_212934;-0.196;-0.031;9.757;-0.001;0.000;0.000;-4.800;-45.400;-159.100;946.5;0.00000;0.00000;0.0;0.0
20190311_212934;-0.177;-0.038;9.757;-0.001;0.002;-0.000;-4.800;-45.400;-158.900;946.5;0.00000;0.00000;0.0;0.0
20190311_212934;-0.189;-0.017;9.757;-0.000;0.001;0.000;-4.800;-45.400;-159.300;946.5;0.00000;0.00000;0.0;0.0
20190311_212934;-0.192;-0.036;9.757;-0.000;-0.001;0.000;-4.900;-45.400;-159.300;946.5;0.00000;0.00000;0.0;0.0
20190311_212934;-0.192;-0.022;9.757;-0.002;0.002;0.000;-4.600;-45.400;-159.500;946.5;0.00000;0.00000;0.0;0.0
20190311_212934;-0.172;-0.043;9.757;-0.002;0.000;-0.001;-4.600;-45.400;-159.300;946.5;0.00000;0.00000;0.0;0.0
20190311_212934;-0.184;-0.036;9.757;-0.003;0.000;-0.000;-4.700;-45.400;-159.400;946.5;0.00000;0.00000;0.0;0.0
20190311_212934;-0.177;-0.022;9.757;-0.002;0.000;-0.001;-4.700;-45.400;-159.200;946.5;0.00000;0.00000;0.0;0.0
20190311_212934;-0.196;-0.034;9.757;-0.000;-0.001;-0.001;-4.700;-45.400;-159.200;946.5;0.00000;0.00000;0.0;0.0
20190311_212934;-0.206;-0.034;9.757;-0.002;0.001;0.002;-4.800;-45.400;-159.100;946.5;0.00000;0.00000;0.0;0.0
20190311_212934;-0.194;-0.034;9.757;-0.000;-0.001;-0.001;-4.800;-45.400;-159.200;946.5;0.00000;0.00000;0.0;0.0
20190311_212934;-0.206;-0.029;9.757;-0.001;-0.001;0.001;-4.800;-45.500;-159.100;946.5;0.00000;0.00000;0.0;0.0
20190311_212934;-0.189;-0.036;9.757;0.001;-0.001;-0.001;-4.900;-45.500;-159.200;946.5;0.00000;0.00000;0.0;0.0
20190311_212934;-0.177;-0.031;9.754;0.001;-0.001;0.000;-4.800;-45.500;-159.200;946.5;0.00000;0.00000;0.0;0.0
20190311_212934;-0.208;-0.034;9.757;-0.001;-0.001;-0.001;-4.800;-45.600;-159.100;946.5;0.00000;0.00000;0.0;0.0
20190311_212934;-0.192;-0.038;9.740;-0.002;-0.001;0.001;-4.700;-45.600;-159.100;946.5;0.00000;0.00000;0.0;0.0
20190311_212934;-0.194;-0.041;9.752;-0.001;0.000;-0.000;-4.700;-45.600;-159.100;946.5;0.00000;0.00000;0.0;0.0
20190311_212935;-0.201;-0.024;9.757;0.001;-0.002;0.001;-4.600;-45.600;-158.800;946.5;0.00000;0.00000;0.0;0.0
20190311_212935;-0.184;-0.022;9.757;-0.001;-0.001;-0.000;-4.600;-45.700;-158.900;946.6;0.00000;0.00000;0.0;0.0
20190311_212935;-0.182;-0.038;9.757;-0.000;0.002;0.000;-4.700;-45.600;-158.900;946.6;0.00000;0.00000;0.0;0.0
20190311_212935;-0.196;-0.024;9.754;-0.001;0.001;-0.000;-4.900;-45.600;-158.800;946.6;0.00000;0.00000;0.0;0.0
20190311_212935;-0.196;-0.031;9.754;0.004;-0.001;-0.000;-4.900;-45.600;-158.800;946.6;0.00000;0.00000;0.0;0.0
20190311_212935;-0.192;-0.031;9.757;0.000;-0.001;-0.001;-4.900;-45.600;-158.800;946.6;0.00000;0.00000;0.0;0.0
20190311_212935;-0.184;-0.031;9.754;0.000;-0.003;0.001;-4.900;-45.600;-158.700;946.6;0.00000;0.00000;0.0;0.0
20190311_212935;-0.189;-0.031;9.754;-0.002;0.001;0.000;-4.500;-45.800;-158.100;946.6;0.00000;0.00000;0.0;0.0
20190311_212935;-0.199;-0.029;9.754;-0.001;0.001;0.000;-4.300;-45.800;-158.000;946.6;0.00000;0.00000;0.0;0.0
20190311_212935;-0.204;-0.043;9.757;0.000;-0.001;0.000;-4.200;-45.800;-158.000;946.6;0.00000;0.00000;0.0;0.0
20190311_212935;-0.204;-0.029;9.757;0.000;-0.002;0.001;-4.200;-45.800;-158.000;946.6;0.00000;0.00000;0.0;0.0
20190311_212935;-0.182;-0.031;9.757;-0.001;-0.000;0.000;-4.400;-45.700;-158.100;946.6;0.00000;0.00000;0.0;0.0
20190311_212935;-0.204;-0.031;9.754;0.000;-0.000;-0.002;-4.900;-45.600;-158.700;946.6;0.00000;0.00000;0.0;0.0
20190311_212935;-0.196;-0.038;9.757;0.002;-0.001;-0.000;-5.000;-45.600;-158.700;946.6;0.00000;0.00000;0.0;0.0
20190311_212935;-0.194;-0.045;9.757;-0.003;-0.000;0.001;-5.100;-45.600;-158.800;946.6;0.00000;0.00000;0.0;0.0
20190311_212935;-0.172;-0.024;9.759;0.000;-0.001;-0.001;-5.200;-45.600;-158.900;946.6;0.00000;0.00000;0.0;0.0
20190311_212936;-0.177;-0.029;9.757;0.001;0.001;-0.002;-5.000;-45.600;-158.800;946.6;0.00000;0.00000;0.0;0.0
20190311_212936;-0.192;-0.029;9.757;-0.001;0.001;0.000;-4.800;-45.600;-158.900;946.6;0.00000;0.00000;0.0;0.0
20190311_212936;-0.189;-0.029;9.759;-0.001;0.001;-0.001;-4.900;-45.600;-159.100;946.6;0.00000;0.00000;0.0;0.0
20190311_212936;-0.194;-0.034;9.757;0.000;-0.002;-0.001;-4.900;-45.600;-158.900;946.6;0.00000;0.00000;0.0;0.0
20190311_212936;-0.182;-0.048;9.757;-0.001;0.001;-0.001;-4.800;-45.600;-158.900;946.6;0.00000;0.00000;0.0;0.0
20190311_212936;-0.192;-0.024;9.757;0.000;-0.001;0.001;-4.900;-45.600;-158.800;946.6;0.00000;0.00000;0.0;0.0
20190311_212936;-0.180;-0.048;9.757;-0.001;0.001;0.000;-5.200;-45.600;-158.600;946.6;0.00000;0.00000;0.0;0.0
20190311_212936;-0.187;-0.026;9.757;-0.001;0.002;-0.001;-5.200;-45.600;-158.600;946.6;0.00000;0.00000;0.0;0.0
20190311_212936;-0.189;-0.048;9.757;0.001;-0.001;-0.001;-5.200;-45.600;-158.900;946.6;0.00000;0.00000;0.0;0.0
20190311_212936;-0.196;-0.026;9.757;0.001;-0.000;-0.001;-4.900;-45.600;-158.500;946.6;0.00000;0.00000;0.0;0.0
20190311_212936;-0.180;-0.057;9.757;-0.001;-0.003;0.002;-4.600;-45.600;-158.100;946.6;0.00000;0.00000;0.0;0.0
20190311_212936;-0.196;-0.029;9.757;0.000;-0.001;0.002;-4.200;-45.600;-157.800;946.6;0.00000;0.00000;0.0;0.0
20190311_212936;-0.180;-0.038;9.757;0.000;0.001;-0.001;-3.800;-45.700;-157.200;946.6;0.00000;0.00000;0.0;0.0
20190311_212936;-0.180;-0.026;9.757;-0.001;0.001;-0.001;-3.200;-45.800;-156.400;946.6;0.00000;0.00000;0.0;0.0
20190311_212936;-0.189;-0.026;9.757;-0.001;0.001;0.000;-3.200;-45.800;-156.500;946.6;0.00000;0.00000;0.0;0.0
20190311_212937;-0.187;-0.031;9.757;0.001;-0.001;-0.000;-3.600;-45.700;-156.700;946.6;0.00000;0.00000;0.0;0.0
20190311_212937;-0.187;-0.031;9.757;0.000;-0.001;-0.001;-3.900;-45.600;-157.300;946.6;0.00000;0.00000;0.0;0.0
20190311_212937;-0.187;-0.031;9.757;0.001;0.001;0.002;-4.000;-45.500;-157.500;946.6;0.00000;0.00000;0.0;0.0
20190311_212937;-0.194;-0.029;9.749;-0.002;0.002;-0.000;-4.200;-45.600;-157.600;946.6;0.00000;0.00000;0.0;0.0
20190311_212937;-0.184;-0.043;9.757;-0.001;-0.001;0.000;-3.700;-45.600;-157.400;946.6;0.00000;0.00000;0.0;0.0
20190311_212937;-0.199;-0.026;9.754;0.001;0.001;0.001;-3.800;-45.600;-157.700;946.6;0.00000;0.00000;0.0;0.0
20190311_212937;-0.206;-0.022;9.752;-0.001;0.002;-0.000;-4.100;-45.600;-158.100;946.6;0.00000;0.00000;0.0;0.0
20190311_212937;-0.196;-0.024;9.757;-0.001;-0.001;0.000;-4.400;-45.600;-158.600;946.6;0.00000;0.00000;0.0;0.0
20190311_212937;-0.204;-0.031;9.752;0.001;0.001;-0.000;-4.700;-45.600;-158.800;946.6;0.00000;0.00000;0.0;0.0
20190311_212937;-0.170;-0.043;9.761;-0.001;0.002;-0.001;-5.100;-45.500;-159.100;946.6;0.00000;0.00000;0.0;0.0
20190311_212937;-0.189;-0.048;9.757;0.001;0.001;-0.001;-5.100;-45.500;-158.800;946.6;0.00000;0.00000;0.0;0.0
20190311_212937;-0.194;-0.043;9.752;-0.001;0.001;-0.001;-5.000;-45.400;-158.700;946.6;0.00000;0.00000;0.0;0.0
20190311_212937;-0.180;-0.029;9.757;-0.001;-0.001;0.002;-4.900;-45.400;-158.600;946.6;0.00000;0.00000;0.0;0.0
20190311_212937;-0.187;-0.038;9.757;0.000;0.001;-0.000;-4.900;-45.400;-158.600;946.6;0.00000;0.00000;0.0;0.0
20190311_212937;-0.177;-0.014;9.757;0.001;-0.001;0.000;-4.600;-45.400;-158.600;946.6;0.00000;0.00000;0.0;0.0
20190311_212937;-0.189;-0.041;9.757;-0.001;-0.000;0.000;-4.400;-45.400;-158.500;946.6;0.00000;0.00000;0.0;0.0
20190311_212938;-0.206;-0.043;9.754;0.002;-0.000;0.003;-4.400;-45.400;-158.500;946.6;0.00000;0.00000;0.0;0.0
20190311_212938;-0.208;-0.019;9.757;-0.001;-0.000;-0.001;-4.400;-45.400;-158.300;946.6;0.00000;0.00000;0.0;0.0
20190311_212938;-0.184;-0.026;9.754;0.001;0.001;-0.000;-4.000;-45.300;-158.000;946.6;0.00000;0.00000;0.0;0.0
20190311_212938;-0.189;-0.019;9.757;0.001;-0.000;-0.001;-4.000;-45.300;-157.900;946.6;0.00000;0.00000;0.0;0.0
20190311_212938;-0.187;-0.034;9.757;-0.001;-0.001;0.001;-3.700;-45.200;-157.500;946.6;0.00000;0.00000;0.0;0.0
20190311_212938;-0.208;-0.036;9.742;-0.001;-0.002;-0.000;-3.600;-45.200;-157.400;946.6;0.00000;0.00000;0.0;0.0
20190311_212938;-0.172;-0.050;9.757;-0.001;-0.001;-0.001;-3.700;-45.100;-157.700;946.6;0.00000;0.00000;0.0;0.0
20190311_212938;-0.196;-0.024;9.757;-0.001;0.001;-0.000;-3.800;-45.200;-157.600;946.6;0.00000;0.00000;0.0;0.0
20190311_212938;-0.192;-0.024;9.757;0.001;-0.001;0.001;-3.500;-45.300;-157.300;946.6;0.00000;0.00000;0.0;0.0
20190311_212938;-0.182;-0.050;9.757;0.001;-0.000;0.000;-3.400;-45.300;-157.100;946.6;0.00000;0.00000;0.0;0.0
20190311_212938;-0.199;-0.034;9.754;0.002;-0.001;-0.001;-3.300;-45.300;-156.900;946.6;0.00000;0.00000;0.0;0.0
20190311_212938;-0.189;-0.038;9.757;-0.001;0.001;0.000;-3.000;-45.300;-156.400;946.6;0.00000;0.00000;0.0;0.0
20190311_212938;-0.180;-0.041;9.754;0.000;0.001;0.001;-3.000;-45.300;-156.500;946.6;0.00000;0.00000;0.0;0.0
20190311_212938;-0.192;-0.034;9.757;-0.001;0.002;-0.000;-3.200;-45.100;-156.900;946.6;0.00000;0.00000;0.0;0.0
20190311_212938;-0.187;-0.038;9.757;0.001;-0.000;0.001;-3.300;-45.000;-157.100;946.6;0.00000;0.00000;0.0;0.0
20190311_212938;-0.204;-0.024;9.754;-0.001;-0.000;-0.001;-3.500;-45.000;-157.400;946.6;0.00000;0.00000;0.0;0.0
20190311_212939;-0.184;-0.034;9.757;-0.001;-0.000;0.000;-3.800;-44.900;-157.800;946.6;0.00000;0.00000;0.0;0.0
20190311_212939;-0.184;-0.036;9.757;-0.001;0.001;-0.001;-3.900;-44.800;-157.800;946.6;0.00000;0.00000;0.0;0.0
20190311_212939;-0.175;-0.043;9.757;0.001;-0.000;-0.000;-4.200;-44.800;-158.200;946.6;0.00000;0.00000;0.0;0.0
20190311_212939;-0.201;-0.038;9.754;0.002;-0.001;0.002;-4.500;-44.800;-158.500;946.6;0.00000;0.00000;0.0;0.0
20190311_212939;-0.201;-0.034;9.757;0.001;-0.000;0.001;-4.600;-44.800;-158.700;946.6;0.00000;0.00000;0.0;0.0
20190311_212939;-0.199;-0.026;9.747;-0.001;-0.001;-0.000;-4.600;-44.800;-158.700;946.6;0.00000;0.00000;0.0;0.0
20190311_212939;-0.189;-0.029;9.754;0.001;0.001;0.000;-4.500;-44.800;-158.800;946.6;0.00000;0.00000;0.0;0.0
20190311_212939;-0.199;-0.024;9.757;0.001;0.002;-0.000;-4.600;-44.800;-158.500;946.6;0.00000;0.00000;0.0;0.0
20190311_212939;-0.187;-0.045;9.757;0.001;0.001;-0.000;-4.600;-44.800;-158.500;946.6;0.00000;0.00000;0.0;0.0
20190311_212939;-0.187;-0.031;9.757;0.001;0.002;-0.000;-4.500;-44.700;-158.400;946.6;0.00000;0.00000;0.0;0.0
20190311_212939;-0.206;-0.026;9.754;-0.000;0.001;-0.000;-4.400;-44.700;-158.400;946.6;0.00000;0.00000;0.0;0.0
20190311_212939;-0.170;-0.048;9.757;-0.001;-0.001;-0.002;-4.400;-44.700;-158.500;946.6;0.00000;0.00000;0.0;0.0
20190311_212939;-0.201;-0.017;9.757;-0.000;-0.001;-0.001;-4.300;-44.700;-158.600;946.6;0.00000;0.00000;0.0;0.0
20190311_212939;-0.180;-0.043;9.757;0.001;-0.001;0.002;-4.200;-44.800;-158.600;946.6;0.00000;0.00000;0.0;0.0
20190311_212939;-0.194;-0.038;9.754;0.000;-0.001;-0.001;-4.100;-44.800;-158.500;946.6;0.00000;0.00000;0.0;0.0
20190311_212939;-0.192;-0.043;9.757;-0.001;0.001;-0.000;-4.100;-44.700;-158.400;946.6;0.00000;0.00000;0.0;0.0
20190311_212939;-0.184;-0.024;9.757;0.000;0.001;0.000;-3.900;-44.700;-158.200;946.6;0.00000;0.00000;0.0;0.0
20190311_212940;-0.194;-0.041;9.747;0.001;-0.003;0.001;-3.600;-44.600;-157.700;946.6;0.00000;0.00000;0.0;0.0
20190311_212940;-0.192;-0.041;9.754;-0.001;0.001;0.002;-3.400;-44.600;-157.300;946.6;0.00000;0.00000;0.0;0.0
20190311_212940;-0.201;-0.019;9.757;0.001;-0.001;0.000;-3.200;-44.600;-157.000;946.6;0.00000;0.00000;0.0;0.0
20190311_212940;-0.196;-0.038;9.754;0.001;-0.000;0.000;-3.300;-44.600;-157.000;946.6;0.00000;0.00000;0.0;0.0
20190311_212940;-0.187;-0.036;9.757;0.001;-0.000;0.002;-3.500;-44.600;-157.300;946.6;0.00000;0.00000;0.0;0.0
20190311_212940;-0.208;-0.010;9.757;0.002;-0.004;-0.001;-3.600;-44.600;-157.500;946.6;0.00000;0.00000;0.0;0.0
